"ppn"	"mv"	"trial"	"blk"	"hnd"	"tfac"	"fac"	"prmt"	"ttype"	"xr"	"r"	"cor"	"rt"	"re"	"target"	"contingency_aware"	"contingency_correct"
"1"	1	"v"	1	1	1	2	6	216	0	6	6	1	1442	1	"irritant"	1	1
"2"	1	"v"	2	1	1	2	2	216	0	6	6	1	907	1	"irritant"	1	1
"3"	1	"v"	3	1	1	1	0	216	0	6	6	1	1148	1	"humeurig"	1	1
"4"	1	"v"	4	1	1	2	3	216	1	5	5	1	1050	7	"mooi"	1	1
"5"	1	"v"	5	1	1	2	4	216	0	6	6	1	1407	1	"stug"	1	1
"6"	1	"v"	6	1	1	1	1	216	1	5	5	1	599	10	"aangenaam"	1	1
"7"	1	"v"	7	1	1	2	6	216	1	5	5	1	598	1	"mooi"	1	1
"8"	1	"v"	8	1	1	2	6	216	0	6	6	1	690	7	"onvriendelijk"	1	1
"9"	1	"v"	9	1	1	2	3	216	1	5	5	1	796	1	"sympathiek"	1	1
"10"	1	"v"	10	1	1	1	1	216	1	5	5	1	991	7	"liefhebbend"	1	1
"11"	1	"v"	11	1	1	2	4	216	0	6	6	1	933	1	"onvriendelijk"	1	1
"12"	1	"v"	12	1	1	1	0	216	0	6	6	1	1130	1	"onaardig"	1	1
"13"	1	"v"	13	1	1	1	0	216	0	6	6	1	641	1	"stug"	1	1
"14"	1	"v"	14	1	1	1	7	216	1	5	5	1	625	7	"mooi"	1	1
"15"	1	"v"	15	1	1	2	6	216	1	5	5	1	1087	1	"liefhebbend"	1	1
"17"	1	"v"	17	1	1	1	5	216	0	6	6	1	1046	1	"onvriendelijk"	1	1
"18"	1	"v"	18	1	1	1	5	216	0	6	6	1	641	1	"onvriendelijk"	1	1
"19"	1	"v"	19	1	1	2	4	216	1	5	5	1	1306	7	"sympathiek"	1	1
"20"	1	"v"	20	1	1	2	3	216	1	5	5	1	842	6	"mooi"	1	1
"21"	1	"v"	21	1	1	2	3	216	1	5	5	1	1365	7	"lief"	1	1
"22"	1	"v"	22	1	1	2	2	216	1	5	5	1	674	1	"vriendelijk"	1	1
"24"	1	"v"	24	1	1	1	1	216	0	6	6	1	689	7	"onsympathiek"	1	1
"25"	1	"v"	25	1	1	2	4	216	0	6	6	1	690	1	"onaardig"	1	1
"26"	1	"v"	26	1	1	2	6	216	0	6	6	1	610	1	"stug"	1	1
"27"	1	"v"	27	1	1	2	2	216	1	5	5	1	795	7	"vriendelijk"	1	1
"28"	1	"v"	28	1	1	2	2	216	0	6	6	1	576	6	"irritant"	1	1
"29"	1	"v"	29	1	1	1	5	216	1	5	5	1	908	1	"lief"	1	1
"30"	1	"v"	30	1	1	2	6	216	1	5	5	1	554	7	"lief"	1	1
"31"	1	"v"	31	1	1	2	2	216	1	5	5	1	676	1	"vriendelijk"	1	1
"32"	1	"v"	32	1	1	1	7	216	0	6	6	1	896	1	"onaardig"	1	1
"33"	1	"v"	33	2	1	1	5	216	0	6	6	1	673	6	"irritant"	1	1
"34"	1	"v"	34	2	1	2	3	216	1	5	5	1	896	7	"liefhebbend"	1	1
"35"	1	"v"	35	2	1	1	5	216	0	6	6	1	879	1	"humeurig"	1	1
"36"	1	"v"	36	2	1	2	6	216	1	5	5	1	548	1	"vriendelijk"	1	1
"37"	1	"v"	37	2	1	2	6	216	1	5	5	1	676	6	"sympathiek"	1	1
"38"	1	"v"	38	2	1	1	7	216	0	6	6	1	1444	7	"onaardig"	1	1
"39"	1	"v"	39	2	1	2	4	216	1	5	5	1	793	1	"vriendelijk"	1	1
"40"	1	"v"	40	2	1	1	7	216	1	5	5	1	653	6	"aangenaam"	1	1
"41"	1	"v"	41	2	1	1	1	216	0	6	6	1	798	9	"onaardig"	1	1
"42"	1	"v"	42	2	1	2	6	216	1	5	5	1	626	1	"liefhebbend"	1	1
"43"	1	"v"	43	2	1	2	4	216	0	6	6	1	607	10	"stug"	1	1
"44"	1	"v"	44	2	1	1	7	216	1	5	5	1	581	1	"liefhebbend"	1	1
"45"	1	"v"	45	2	1	1	0	216	1	5	5	1	622	8	"vriendelijk"	1	1
"46"	1	"v"	46	2	1	1	0	216	1	5	5	1	736	1	"lief"	1	1
"47"	1	"v"	47	2	1	1	0	216	1	5	5	1	548	10	"mooi"	1	1
"48"	1	"v"	48	2	1	1	5	216	0	6	6	1	623	10	"onvriendelijk"	1	1
"49"	1	"v"	49	2	1	2	6	216	0	6	6	1	792	1	"onaardig"	1	1
"50"	1	"v"	50	2	1	1	1	216	1	5	5	1	544	1	"vriendelijk"	1	1
"51"	1	"v"	51	2	1	1	1	216	0	6	6	1	638	1	"onsympathiek"	1	1
"52"	1	"v"	52	2	1	2	3	216	0	6	6	1	498	7	"onvriendelijk"	1	1
"54"	1	"v"	54	2	1	1	7	216	1	5	5	1	973	7	"mooi"	1	1
"55"	1	"v"	55	2	1	1	5	216	1	5	5	1	699	1	"sympathiek"	1	1
"56"	1	"v"	56	2	1	2	4	216	1	5	5	1	862	1	"liefhebbend"	1	1
"57"	1	"v"	57	2	1	2	3	216	0	6	6	1	1555	1	"onvriendelijk"	1	1
"58"	1	"v"	58	2	1	1	7	216	1	5	5	1	716	17	"sympathiek"	1	1
"59"	1	"v"	59	2	1	2	2	216	1	5	5	1	514	6	"sympathiek"	1	1
"60"	1	"v"	60	2	1	2	4	216	0	6	6	1	1022	7	"onsympathiek"	1	1
"61"	1	"v"	61	2	1	2	6	216	0	6	6	1	758	1	"onvriendelijk"	1	1
"62"	1	"v"	62	2	1	1	7	216	1	5	5	1	599	1	"mooi"	1	1
"63"	1	"v"	63	2	1	1	0	216	0	6	6	1	1558	7	"humeurig"	1	1
"66"	1	"v"	66	3	1	1	7	216	0	6	6	1	768	1	"onvriendelijk"	1	1
"67"	1	"v"	67	3	1	2	3	216	0	6	6	1	536	1	"irritant"	1	1
"68"	1	"v"	68	3	1	2	3	216	0	6	6	1	635	6	"onvriendelijk"	1	1
"69"	1	"v"	69	3	1	1	0	216	0	6	6	1	719	16	"stug"	1	1
"70"	1	"v"	70	3	1	1	1	216	1	5	5	1	567	1	"lief"	1	1
"71"	1	"v"	71	3	1	1	5	216	1	5	5	1	753	1	"lief"	1	1
"72"	1	"v"	72	3	1	2	6	216	0	6	6	1	646	1	"humeurig"	1	1
"73"	1	"v"	73	3	1	2	6	216	1	5	5	1	720	6	"mooi"	1	1
"74"	1	"v"	74	3	1	1	0	216	0	6	6	1	1096	1	"onaardig"	1	1
"75"	1	"v"	75	3	1	1	7	216	1	5	5	1	942	7	"aangenaam"	1	1
"76"	1	"v"	76	3	1	2	2	216	1	5	5	1	791	1	"liefhebbend"	1	1
"77"	1	"v"	77	3	1	1	5	216	0	6	6	1	693	1	"onsympathiek"	1	1
"78"	1	"v"	78	3	1	2	2	216	0	6	6	1	879	7	"stug"	1	1
"79"	1	"v"	79	3	1	1	7	216	1	5	5	1	596	1	"aangenaam"	1	1
"80"	1	"v"	80	3	1	2	2	216	0	6	6	1	675	1	"onvriendelijk"	1	1
"81"	1	"v"	81	3	1	1	0	216	1	5	5	1	594	1	"liefhebbend"	1	1
"83"	1	"v"	83	3	1	2	6	216	1	5	5	1	501	1	"liefhebbend"	1	1
"84"	1	"v"	84	3	1	1	5	216	1	5	5	1	560	7	"lief"	1	1
"85"	1	"v"	85	3	1	2	3	216	0	6	6	1	832	1	"onvriendelijk"	1	1
"86"	1	"v"	86	3	1	2	2	216	1	5	5	1	586	10	"mooi"	1	1
"87"	1	"v"	87	3	1	2	2	216	0	6	6	1	979	1	"stug"	1	1
"88"	1	"v"	88	3	1	2	3	216	1	5	5	1	1186	1	"sympathiek"	1	1
"89"	1	"v"	89	3	1	1	7	216	0	6	6	1	886	1	"humeurig"	1	1
"90"	1	"v"	90	3	1	1	5	216	1	5	5	1	756	7	"liefhebbend"	1	1
"91"	1	"v"	91	3	1	1	5	216	0	6	6	1	901	1	"onaardig"	1	1
"92"	1	"v"	92	3	1	2	4	216	0	6	6	1	706	1	"onvriendelijk"	1	1
"93"	1	"v"	93	3	1	2	6	216	0	6	6	1	566	7	"stug"	1	1
"94"	1	"v"	94	3	1	2	2	216	0	6	6	1	909	1	"onvriendelijk"	1	1
"95"	1	"v"	95	3	1	1	1	216	1	5	5	1	563	7	"aangenaam"	1	1
"96"	1	"v"	96	3	1	2	2	216	0	6	6	1	577	1	"irritant"	1	1
"97"	1	"v"	97	4	1	2	4	216	0	6	6	1	737	7	"humeurig"	1	1
"98"	1	"v"	98	4	1	1	7	216	0	6	6	1	734	1	"onvriendelijk"	1	1
"99"	1	"v"	99	4	1	1	1	216	0	6	6	1	619	1	"onaardig"	1	1
"100"	1	"v"	100	4	1	1	1	216	0	6	6	1	613	1	"irritant"	1	1
"101"	1	"v"	101	4	1	1	1	216	1	5	5	1	845	1	"vriendelijk"	1	1
"102"	1	"v"	102	4	1	1	7	216	0	6	6	1	717	7	"stug"	1	1
"103"	1	"v"	103	4	1	2	2	216	1	5	5	1	624	1	"liefhebbend"	1	1
"104"	1	"v"	104	4	1	1	1	216	0	6	6	1	792	7	"irritant"	1	1
"105"	1	"v"	105	4	1	1	0	216	0	6	6	1	876	7	"onaardig"	1	1
"106"	1	"v"	106	4	1	1	7	216	0	6	6	1	709	7	"humeurig"	1	1
"107"	1	"v"	107	4	1	1	1	216	0	6	6	1	678	6	"onvriendelijk"	1	1
"108"	1	"v"	108	4	1	1	5	216	1	5	5	1	568	9	"mooi"	1	1
"109"	1	"v"	109	4	1	2	2	216	1	5	5	1	793	1	"vriendelijk"	1	1
"110"	1	"v"	110	4	1	1	1	216	1	5	5	1	635	8	"sympathiek"	1	1
"111"	1	"v"	111	4	1	2	4	216	0	6	6	1	685	1	"onvriendelijk"	1	1
"112"	1	"v"	112	4	1	1	0	216	1	5	5	1	554	7	"sympathiek"	1	1
"113"	1	"v"	113	4	1	2	4	216	1	5	5	1	650	6	"vriendelijk"	1	1
"114"	1	"v"	114	4	1	1	5	216	0	6	6	1	665	6	"irritant"	1	1
"115"	1	"v"	115	4	1	1	0	216	1	5	5	1	574	1	"aangenaam"	1	1
"116"	1	"v"	116	4	1	2	3	216	1	5	5	1	596	8	"sympathiek"	1	1
"117"	1	"v"	117	4	1	2	4	216	1	5	5	1	506	6	"vriendelijk"	1	1
"118"	1	"v"	118	4	1	2	4	216	1	5	5	1	561	7	"sympathiek"	1	1
"119"	1	"v"	119	4	1	1	0	216	1	5	5	1	573	1	"lief"	1	1
"120"	1	"v"	120	4	1	1	0	216	1	5	5	1	727	8	"sympathiek"	1	1
"121"	1	"v"	121	4	1	2	3	216	0	6	6	1	711	1	"stug"	1	1
"122"	1	"v"	122	4	1	1	1	216	0	6	6	1	774	9	"onsympathiek"	1	1
"123"	1	"v"	123	4	1	1	5	216	1	5	5	1	600	1	"aangenaam"	1	1
"125"	1	"v"	125	4	1	2	3	216	0	6	6	1	1247	1	"onsympathiek"	1	1
"126"	1	"v"	126	4	1	2	4	216	1	5	5	1	702	6	"lief"	1	1
"127"	1	"v"	127	4	1	1	1	216	1	5	5	1	550	1	"lief"	1	1
"128"	1	"v"	128	4	1	2	2	216	0	6	6	1	749	1	"onsympathiek"	1	1
"130"	2	"v"	2	1	2	1	7	216	1	6	6	1	798	1	"liefhebbend"	0	3
"131"	2	"v"	3	1	2	2	2	216	0	5	5	1	967	1	"irritant"	0	3
"132"	2	"v"	4	1	2	2	6	216	0	5	5	1	674	10	"onaardig"	0	3
"135"	2	"v"	7	1	2	2	2	216	1	6	6	1	634	1	"sympathiek"	0	3
"136"	2	"v"	8	1	2	2	6	216	1	6	6	1	600	7	"sympathiek"	0	3
"137"	2	"v"	9	1	2	1	5	216	1	6	6	1	527	8	"liefhebbend"	0	3
"138"	2	"v"	10	1	2	2	4	216	1	6	6	1	633	1	"aangenaam"	0	3
"139"	2	"v"	11	1	2	1	1	216	1	6	6	1	494	1	"lief"	0	3
"140"	2	"v"	12	1	2	2	3	216	0	5	5	1	688	1	"irritant"	0	3
"141"	2	"v"	13	1	2	1	5	216	1	6	6	1	519	10	"liefhebbend"	0	3
"142"	2	"v"	14	1	2	1	0	216	1	6	6	1	626	8	"aangenaam"	0	3
"143"	2	"v"	15	1	2	2	6	216	0	5	5	1	577	1	"stug"	0	3
"144"	2	"v"	16	1	2	1	1	216	1	6	6	1	552	9	"mooi"	0	3
"145"	2	"v"	17	1	2	1	1	216	1	6	6	1	548	7	"sympathiek"	0	3
"146"	2	"v"	18	1	2	1	1	216	1	6	6	1	487	1	"sympathiek"	0	3
"147"	2	"v"	19	1	2	2	6	216	1	6	6	1	498	6	"aangenaam"	0	3
"148"	2	"v"	20	1	2	2	6	216	1	6	6	1	468	10	"sympathiek"	0	3
"149"	2	"v"	21	1	2	1	7	216	1	6	6	1	436	1	"lief"	0	3
"150"	2	"v"	22	1	2	1	0	216	1	6	6	1	483	1	"mooi"	0	3
"151"	2	"v"	23	1	2	1	7	216	1	6	6	1	434	10	"aangenaam"	0	3
"152"	2	"v"	24	1	2	2	4	216	0	5	5	1	513	7	"onvriendelijk"	0	3
"153"	2	"v"	25	1	2	1	1	216	0	5	5	1	574	1	"humeurig"	0	3
"154"	2	"v"	26	1	2	2	3	216	1	6	6	1	542	1	"sympathiek"	0	3
"155"	2	"v"	27	1	2	1	1	216	0	5	5	1	748	1	"humeurig"	0	3
"156"	2	"v"	28	1	2	1	0	216	0	5	5	1	622	1	"onsympathiek"	0	3
"157"	2	"v"	29	1	2	2	3	216	1	6	6	1	521	1	"liefhebbend"	0	3
"158"	2	"v"	30	1	2	1	0	216	0	5	5	1	604	7	"onsympathiek"	0	3
"159"	2	"v"	31	1	2	2	3	216	0	5	5	1	514	1	"stug"	0	3
"160"	2	"v"	32	1	2	1	5	216	0	5	5	1	610	1	"onsympathiek"	0	3
"161"	2	"v"	33	2	2	2	2	216	0	5	5	1	442	1	"onvriendelijk"	0	3
"162"	2	"v"	34	2	2	1	0	216	0	5	5	1	597	10	"humeurig"	0	3
"163"	2	"v"	35	2	2	2	6	216	1	6	6	1	531	7	"vriendelijk"	0	3
"164"	2	"v"	36	2	2	2	6	216	1	6	6	1	559	7	"aangenaam"	0	3
"165"	2	"v"	37	2	2	1	7	216	0	5	5	1	649	1	"humeurig"	0	3
"166"	2	"v"	38	2	2	2	6	216	1	6	6	1	576	7	"liefhebbend"	0	3
"167"	2	"v"	39	2	2	1	5	216	1	6	6	1	581	10	"mooi"	0	3
"168"	2	"v"	40	2	2	1	0	216	1	6	6	1	480	1	"mooi"	0	3
"169"	2	"v"	41	2	2	2	3	216	1	6	6	1	640	1	"sympathiek"	0	3
"170"	2	"v"	42	2	2	1	5	216	0	5	5	1	594	1	"irritant"	0	3
"171"	2	"v"	43	2	2	1	1	216	0	5	5	1	644	1	"humeurig"	0	3
"172"	2	"v"	44	2	2	2	3	216	0	5	5	1	607	1	"stug"	0	3
"173"	2	"v"	45	2	2	2	2	216	1	6	6	1	776	1	"sympathiek"	0	3
"174"	2	"v"	46	2	2	2	2	216	1	6	6	1	562	10	"liefhebbend"	0	3
"175"	2	"v"	47	2	2	1	5	216	0	5	5	1	531	10	"stug"	0	3
"176"	2	"v"	48	2	2	1	0	216	0	5	5	1	546	1	"onsympathiek"	0	3
"177"	2	"v"	49	2	2	1	7	216	0	5	5	1	622	8	"humeurig"	0	3
"178"	2	"v"	50	2	2	2	2	216	0	5	5	1	510	9	"irritant"	0	3
"179"	2	"v"	51	2	2	2	2	216	0	5	5	1	463	1	"onaardig"	0	3
"180"	2	"v"	52	2	2	1	5	216	0	5	5	1	582	10	"onvriendelijk"	0	3
"181"	2	"v"	53	2	2	2	3	216	1	6	6	1	534	7	"aangenaam"	0	3
"182"	2	"v"	54	2	2	1	1	216	0	5	5	1	507	1	"onaardig"	0	3
"183"	2	"v"	55	2	2	1	1	216	0	5	5	1	551	1	"irritant"	0	3
"184"	2	"v"	56	2	2	1	1	216	1	6	6	1	663	1	"sympathiek"	0	3
"185"	2	"v"	57	2	2	2	4	216	0	5	5	1	476	1	"humeurig"	0	3
"186"	2	"v"	58	2	2	2	6	216	0	5	5	1	671	9	"irritant"	0	3
"187"	2	"v"	59	2	2	1	0	216	1	6	6	1	554	10	"vriendelijk"	0	3
"188"	2	"v"	60	2	2	2	2	216	1	6	6	1	620	1	"aangenaam"	0	3
"189"	2	"v"	61	2	2	2	4	216	1	6	6	1	462	1	"aangenaam"	0	3
"190"	2	"v"	62	2	2	2	3	216	0	5	5	1	516	8	"onvriendelijk"	0	3
"191"	2	"v"	63	2	2	1	7	216	1	6	6	1	611	1	"aangenaam"	0	3
"192"	2	"v"	64	2	2	1	5	216	1	6	6	1	540	1	"aangenaam"	0	3
"193"	2	"v"	65	3	2	2	3	216	1	6	6	1	508	1	"sympathiek"	0	3
"194"	2	"v"	66	3	2	2	2	216	1	6	6	1	469	7	"aangenaam"	0	3
"195"	2	"v"	67	3	2	1	7	216	0	5	5	1	526	10	"onaardig"	0	3
"196"	2	"v"	68	3	2	2	6	216	0	5	5	1	558	1	"stug"	0	3
"197"	2	"v"	69	3	2	1	5	216	1	6	6	1	599	1	"sympathiek"	0	3
"198"	2	"v"	70	3	2	2	3	216	1	6	6	1	603	9	"liefhebbend"	0	3
"199"	2	"v"	71	3	2	2	6	216	0	5	5	1	588	7	"onsympathiek"	0	3
"200"	2	"v"	72	3	2	2	3	216	1	6	6	1	524	1	"vriendelijk"	0	3
"201"	2	"v"	73	3	2	1	0	216	0	5	5	1	885	1	"humeurig"	0	3
"202"	2	"v"	74	3	2	2	2	216	0	5	5	1	507	7	"onsympathiek"	0	3
"203"	2	"v"	75	3	2	1	7	216	0	5	5	1	565	7	"humeurig"	0	3
"204"	2	"v"	76	3	2	1	7	216	0	5	5	1	468	10	"humeurig"	0	3
"205"	2	"v"	77	3	2	2	3	216	0	5	5	1	715	1	"onvriendelijk"	0	3
"206"	2	"v"	78	3	2	1	0	216	0	5	5	1	632	1	"humeurig"	0	3
"207"	2	"v"	79	3	2	2	4	216	1	6	6	1	648	6	"aangenaam"	0	3
"208"	2	"v"	80	3	2	2	4	216	1	6	6	1	549	1	"vriendelijk"	0	3
"209"	2	"v"	81	3	2	1	5	216	0	5	5	1	575	7	"stug"	0	3
"210"	2	"v"	82	3	2	2	6	216	1	6	6	1	663	7	"sympathiek"	0	3
"211"	2	"v"	83	3	2	2	4	216	0	5	5	1	600	1	"stug"	0	3
"212"	2	"v"	84	3	2	1	0	216	0	5	5	1	542	1	"onvriendelijk"	0	3
"213"	2	"v"	85	3	2	2	4	216	1	6	6	1	507	9	"lief"	0	3
"214"	2	"v"	86	3	2	1	1	216	1	6	6	1	653	8	"aangenaam"	0	3
"215"	2	"v"	87	3	2	1	7	216	0	5	5	1	462	1	"onsympathiek"	0	3
"216"	2	"v"	88	3	2	1	7	216	0	5	5	1	618	7	"stug"	0	3
"217"	2	"v"	89	3	2	2	4	216	0	5	5	1	514	1	"onsympathiek"	0	3
"218"	2	"v"	90	3	2	1	1	216	1	6	6	1	459	1	"lief"	0	3
"219"	2	"v"	91	3	2	1	5	216	1	6	6	1	528	7	"aangenaam"	0	3
"220"	2	"v"	92	3	2	2	2	216	0	5	5	1	589	1	"onsympathiek"	0	3
"221"	2	"v"	93	3	2	1	5	216	1	6	6	1	588	7	"vriendelijk"	0	3
"222"	2	"v"	94	3	2	1	1	216	0	5	5	1	566	7	"onsympathiek"	0	3
"223"	2	"v"	95	3	2	2	6	216	0	5	5	1	531	1	"onsympathiek"	0	3
"224"	2	"v"	96	3	2	2	2	216	0	5	5	1	559	7	"stug"	0	3
"225"	2	"v"	97	4	2	1	1	216	0	5	5	1	504	1	"onvriendelijk"	0	3
"226"	2	"v"	98	4	2	2	4	216	0	5	5	1	639	6	"stug"	0	3
"227"	2	"v"	99	4	2	1	0	216	1	6	6	1	666	9	"sympathiek"	0	3
"228"	2	"v"	100	4	2	2	3	216	0	5	5	1	665	1	"humeurig"	0	3
"229"	2	"v"	101	4	2	2	2	216	1	6	6	1	570	9	"liefhebbend"	0	3
"230"	2	"v"	102	4	2	2	6	216	1	6	6	1	599	7	"vriendelijk"	0	3
"231"	2	"v"	103	4	2	2	4	216	0	5	5	1	541	1	"onvriendelijk"	0	3
"232"	2	"v"	104	4	2	2	3	216	0	5	5	1	529	9	"onvriendelijk"	0	3
"233"	2	"v"	105	4	2	2	4	216	1	6	6	1	481	1	"lief"	0	3
"234"	2	"v"	106	4	2	1	5	216	0	5	5	1	561	1	"stug"	0	3
"235"	2	"v"	107	4	2	2	4	216	0	5	5	1	553	1	"onaardig"	0	3
"236"	2	"v"	108	4	2	1	5	216	0	5	5	1	492	1	"onsympathiek"	0	3
"237"	2	"v"	109	4	2	1	5	216	1	6	6	1	571	1	"sympathiek"	0	3
"238"	2	"v"	110	4	2	2	4	216	1	6	6	1	496	7	"aangenaam"	0	3
"239"	2	"v"	111	4	2	1	1	216	1	6	6	1	517	7	"lief"	0	3
"240"	2	"v"	112	4	2	2	6	216	0	5	5	1	806	1	"humeurig"	0	3
"241"	2	"v"	113	4	2	2	2	216	1	6	6	1	428	1	"mooi"	0	3
"242"	2	"v"	114	4	2	1	0	216	1	6	6	1	537	1	"vriendelijk"	0	3
"243"	2	"v"	115	4	2	1	7	216	1	6	6	1	489	6	"liefhebbend"	0	3
"244"	2	"v"	116	4	2	1	7	216	1	6	6	1	984	7	"aangenaam"	0	3
"245"	2	"v"	117	4	2	2	3	216	0	5	5	1	531	1	"humeurig"	0	3
"246"	2	"v"	118	4	2	2	4	216	0	5	5	1	606	1	"humeurig"	0	3
"247"	2	"v"	119	4	2	1	7	216	0	5	5	1	538	1	"onsympathiek"	0	3
"248"	2	"v"	120	4	2	2	6	216	0	5	5	1	523	1	"irritant"	0	3
"249"	2	"v"	121	4	2	1	7	216	1	6	6	1	520	1	"aangenaam"	0	3
"250"	2	"v"	122	4	2	2	2	216	0	5	5	1	525	1	"onsympathiek"	0	3
"251"	2	"v"	123	4	2	1	5	216	0	5	5	1	538	1	"irritant"	0	3
"252"	2	"v"	124	4	2	1	1	216	0	5	5	1	650	1	"onvriendelijk"	0	3
"253"	2	"v"	125	4	2	1	7	216	1	6	6	1	522	1	"aangenaam"	0	3
"254"	2	"v"	126	4	2	2	2	216	1	6	6	1	679	7	"aangenaam"	0	3
"255"	2	"v"	127	4	2	1	0	216	1	6	6	1	460	10	"lief"	0	3
"256"	2	"v"	128	4	2	2	4	216	1	6	6	1	498	1	"liefhebbend"	0	3
"257"	3	"v"	1	1	2	1	0	216	1	6	6	1	708	7	"mooi"	1	1
"258"	3	"v"	2	1	2	1	6	216	1	6	6	1	621	1	"sympathiek"	1	1
"259"	3	"v"	3	1	2	1	7	216	0	5	5	1	718	7	"onaardig"	1	1
"260"	3	"v"	4	1	2	2	5	216	1	6	6	1	758	7	"liefhebbend"	1	1
"261"	3	"v"	5	1	2	1	7	216	0	5	5	1	712	1	"onsympathiek"	1	1
"262"	3	"v"	6	1	2	2	5	216	0	5	5	1	670	1	"onvriendelijk"	1	1
"263"	3	"v"	7	1	2	1	2	216	1	6	6	1	676	1	"liefhebbend"	1	1
"264"	3	"v"	8	1	2	2	3	216	0	5	5	1	615	6	"stug"	1	1
"265"	3	"v"	9	1	2	2	1	216	1	6	6	1	572	1	"sympathiek"	1	1
"266"	3	"v"	10	1	2	2	3	216	1	6	6	1	573	1	"vriendelijk"	1	1
"267"	3	"v"	11	1	2	2	4	216	1	6	6	1	556	1	"vriendelijk"	1	1
"268"	3	"v"	12	1	2	1	6	216	0	5	5	1	509	10	"onvriendelijk"	1	1
"269"	3	"v"	13	1	2	2	4	216	0	5	5	1	729	1	"stug"	1	1
"270"	3	"v"	14	1	2	2	3	216	0	5	5	1	764	1	"onaardig"	1	1
"271"	3	"v"	15	1	2	2	1	216	0	5	5	1	478	7	"onsympathiek"	1	1
"272"	3	"v"	16	1	2	1	6	216	0	5	5	1	774	1	"humeurig"	1	1
"273"	3	"v"	17	1	2	1	7	216	0	5	5	1	520	7	"stug"	1	1
"274"	3	"v"	18	1	2	2	4	216	0	5	5	1	545	7	"onvriendelijk"	1	1
"275"	3	"v"	19	1	2	2	5	216	1	6	6	1	555	1	"mooi"	1	1
"276"	3	"v"	20	1	2	2	1	216	0	5	5	1	612	6	"onvriendelijk"	1	1
"277"	3	"v"	21	1	2	1	7	216	1	6	6	1	613	10	"sympathiek"	1	1
"278"	3	"v"	22	1	2	1	0	216	1	6	6	1	601	1	"mooi"	1	1
"279"	3	"v"	23	1	2	1	2	216	1	6	6	1	513	7	"mooi"	1	1
"280"	3	"v"	24	1	2	2	4	216	0	5	5	1	579	1	"humeurig"	1	1
"281"	3	"v"	25	1	2	1	2	216	0	5	5	1	511	1	"onaardig"	1	1
"282"	3	"v"	26	1	2	2	5	216	0	5	5	1	478	1	"onsympathiek"	1	1
"283"	3	"v"	27	1	2	1	6	216	0	5	5	1	528	1	"onaardig"	1	1
"284"	3	"v"	28	1	2	1	6	216	0	5	5	1	647	1	"onvriendelijk"	1	1
"285"	3	"v"	29	1	2	2	5	216	1	6	6	1	770	10	"liefhebbend"	1	1
"286"	3	"v"	30	1	2	1	7	216	0	5	5	1	521	1	"onvriendelijk"	1	1
"287"	3	"v"	31	1	2	2	3	216	0	5	5	1	571	1	"stug"	1	1
"288"	3	"v"	32	1	2	1	0	216	1	6	6	1	499	1	"mooi"	1	1
"289"	3	"v"	33	2	2	2	3	216	0	5	5	1	577	1	"onaardig"	1	1
"290"	3	"v"	34	2	2	2	1	216	0	5	5	1	460	1	"stug"	1	1
"291"	3	"v"	35	2	2	1	7	216	1	6	6	1	507	1	"vriendelijk"	1	1
"292"	3	"v"	36	2	2	1	7	216	0	5	5	1	525	1	"stug"	1	1
"294"	3	"v"	38	2	2	1	6	216	1	6	6	1	771	10	"aangenaam"	1	1
"295"	3	"v"	39	2	2	1	2	216	1	6	6	1	603	7	"sympathiek"	1	1
"296"	3	"v"	40	2	2	1	0	216	0	5	5	1	452	1	"onvriendelijk"	1	1
"297"	3	"v"	41	2	2	1	6	216	1	6	6	1	594	1	"sympathiek"	1	1
"298"	3	"v"	42	2	2	2	3	216	1	6	6	1	551	1	"vriendelijk"	1	1
"299"	3	"v"	43	2	2	2	1	216	1	6	6	1	553	1	"sympathiek"	1	1
"300"	3	"v"	44	2	2	2	4	216	0	5	5	1	757	1	"irritant"	1	1
"301"	3	"v"	45	2	2	1	0	216	1	6	6	1	582	1	"vriendelijk"	1	1
"302"	3	"v"	46	2	2	1	6	216	1	6	6	1	496	9	"mooi"	1	1
"303"	3	"v"	47	2	2	1	2	216	0	5	5	1	563	6	"stug"	1	1
"304"	3	"v"	48	2	2	1	6	216	0	5	5	1	684	1	"humeurig"	1	1
"305"	3	"v"	49	2	2	2	3	216	1	6	6	1	628	7	"aangenaam"	1	1
"306"	3	"v"	50	2	2	1	2	216	1	6	6	1	530	1	"vriendelijk"	1	1
"307"	3	"v"	51	2	2	2	3	216	0	5	5	1	551	8	"onvriendelijk"	1	1
"308"	3	"v"	52	2	2	1	2	216	1	6	6	1	487	1	"mooi"	1	1
"309"	3	"v"	53	2	2	2	4	216	1	6	6	1	550	9	"sympathiek"	1	1
"310"	3	"v"	54	2	2	1	2	216	1	6	6	1	465	1	"lief"	1	1
"311"	3	"v"	55	2	2	1	0	216	0	5	5	1	625	7	"onaardig"	1	1
"312"	3	"v"	56	2	2	2	5	216	1	6	6	1	559	1	"vriendelijk"	1	1
"313"	3	"v"	57	2	2	2	3	216	0	5	5	1	455	6	"onsympathiek"	1	1
"314"	3	"v"	58	2	2	2	5	216	1	6	6	1	778	1	"liefhebbend"	1	1
"315"	3	"v"	59	2	2	2	3	216	1	6	6	1	614	6	"liefhebbend"	1	1
"316"	3	"v"	60	2	2	1	7	216	0	5	5	1	601	1	"humeurig"	1	1
"317"	3	"v"	61	2	2	2	4	216	1	6	6	1	630	10	"sympathiek"	1	1
"318"	3	"v"	62	2	2	1	0	216	0	5	5	1	761	7	"onaardig"	1	1
"319"	3	"v"	63	2	2	2	5	216	1	6	6	1	488	1	"vriendelijk"	1	1
"320"	3	"v"	64	2	2	2	3	216	0	5	5	1	535	1	"onaardig"	1	1
"321"	3	"v"	65	3	2	2	1	216	0	5	5	1	580	9	"irritant"	1	1
"322"	3	"v"	66	3	2	2	3	216	1	6	6	1	722	1	"aangenaam"	1	1
"323"	3	"v"	67	3	2	2	5	216	0	5	5	1	588	28	"stug"	1	1
"324"	3	"v"	68	3	2	2	3	216	1	6	6	1	520	1	"mooi"	1	1
"325"	3	"v"	69	3	2	1	7	216	1	6	6	1	619	1	"liefhebbend"	1	1
"326"	3	"v"	70	3	2	2	1	216	1	6	6	1	571	7	"vriendelijk"	1	1
"327"	3	"v"	71	3	2	1	7	216	0	5	5	1	577	10	"onvriendelijk"	1	1
"328"	3	"v"	72	3	2	1	0	216	0	5	5	1	618	7	"onsympathiek"	1	1
"329"	3	"v"	73	3	2	1	6	216	1	6	6	1	564	10	"sympathiek"	1	1
"330"	3	"v"	74	3	2	2	1	216	1	6	6	1	589	6	"aangenaam"	1	1
"332"	3	"v"	76	3	2	1	6	216	0	5	5	1	699	1	"onaardig"	1	1
"333"	3	"v"	77	3	2	1	2	216	0	5	5	1	667	1	"irritant"	1	1
"334"	3	"v"	78	3	2	1	0	216	0	5	5	1	657	7	"irritant"	1	1
"335"	3	"v"	79	3	2	1	0	216	0	5	5	1	557	1	"onsympathiek"	1	1
"336"	3	"v"	80	3	2	1	6	216	1	6	6	1	474	1	"lief"	1	1
"337"	3	"v"	81	3	2	1	0	216	1	6	6	1	514	7	"lief"	1	1
"338"	3	"v"	82	3	2	2	1	216	0	5	5	1	582	1	"stug"	1	1
"339"	3	"v"	83	3	2	2	4	216	1	6	6	1	666	7	"liefhebbend"	1	1
"340"	3	"v"	84	3	2	2	4	216	1	6	6	1	676	7	"lief"	1	1
"341"	3	"v"	85	3	2	2	1	216	1	6	6	1	623	1	"aangenaam"	1	1
"343"	3	"v"	87	3	2	1	2	216	1	6	6	1	562	8	"liefhebbend"	1	1
"344"	3	"v"	88	3	2	1	2	216	0	5	5	1	638	7	"humeurig"	1	1
"345"	3	"v"	89	3	2	1	6	216	1	6	6	1	540	1	"mooi"	1	1
"346"	3	"v"	90	3	2	1	0	216	1	6	6	1	555	1	"vriendelijk"	1	1
"347"	3	"v"	91	3	2	1	0	216	0	5	5	1	554	1	"onaardig"	1	1
"348"	3	"v"	92	3	2	2	4	216	0	5	5	1	664	1	"irritant"	1	1
"349"	3	"v"	93	3	2	1	7	216	1	6	6	1	502	1	"liefhebbend"	1	1
"350"	3	"v"	94	3	2	1	7	216	1	6	6	1	469	10	"liefhebbend"	1	1
"351"	3	"v"	95	3	2	2	3	216	1	6	6	1	662	1	"vriendelijk"	1	1
"352"	3	"v"	96	3	2	2	4	216	1	6	6	1	482	7	"lief"	1	1
"353"	3	"v"	97	4	2	1	2	216	0	5	5	1	510	1	"stug"	1	1
"354"	3	"v"	98	4	2	2	3	216	1	6	6	1	507	1	"vriendelijk"	1	1
"355"	3	"v"	99	4	2	2	1	216	1	6	6	1	514	9	"aangenaam"	1	1
"356"	3	"v"	100	4	2	1	7	216	0	5	5	1	428	1	"stug"	1	1
"358"	3	"v"	102	4	2	1	0	216	0	5	5	1	622	1	"onsympathiek"	1	1
"359"	3	"v"	103	4	2	2	5	216	1	6	6	1	492	6	"vriendelijk"	1	1
"360"	3	"v"	104	4	2	2	4	216	1	6	6	1	720	7	"lief"	1	1
"361"	3	"v"	105	4	2	2	5	216	0	5	5	1	583	7	"humeurig"	1	1
"362"	3	"v"	106	4	2	2	4	216	0	5	5	1	614	1	"onaardig"	1	1
"363"	3	"v"	107	4	2	2	1	216	1	6	6	1	576	1	"mooi"	1	1
"364"	3	"v"	108	4	2	1	0	216	1	6	6	1	472	1	"mooi"	1	1
"365"	3	"v"	109	4	2	2	4	216	0	5	5	1	583	1	"humeurig"	1	1
"366"	3	"v"	110	4	2	1	2	216	0	5	5	1	656	1	"humeurig"	1	1
"367"	3	"v"	111	4	2	2	1	216	0	5	5	1	576	1	"stug"	1	1
"368"	3	"v"	112	4	2	1	2	216	1	6	6	1	615	1	"liefhebbend"	1	1
"369"	3	"v"	113	4	2	2	1	216	1	6	6	1	648	1	"sympathiek"	1	1
"370"	3	"v"	114	4	2	2	3	216	0	5	5	1	610	6	"stug"	1	1
"371"	3	"v"	115	4	2	1	2	216	0	5	5	1	546	7	"irritant"	1	1
"372"	3	"v"	116	4	2	1	6	216	0	5	5	1	560	1	"stug"	1	1
"373"	3	"v"	117	4	2	1	7	216	1	6	6	1	516	1	"lief"	1	1
"374"	3	"v"	118	4	2	1	2	216	0	5	5	1	591	9	"stug"	1	1
"375"	3	"v"	119	4	2	2	1	216	0	5	5	1	476	1	"stug"	1	1
"376"	3	"v"	120	4	2	1	7	216	1	6	6	1	560	6	"aangenaam"	1	1
"377"	3	"v"	121	4	2	1	6	216	0	5	5	1	697	7	"stug"	1	1
"378"	3	"v"	122	4	2	1	6	216	1	6	6	1	504	10	"aangenaam"	1	1
"379"	3	"v"	123	4	2	2	1	216	0	5	5	1	578	1	"irritant"	1	1
"380"	3	"v"	124	4	2	1	0	216	1	6	6	1	595	1	"aangenaam"	1	1
"382"	3	"v"	126	4	2	2	5	216	0	5	5	1	767	8	"humeurig"	1	1
"383"	3	"v"	127	4	2	1	7	216	1	6	6	1	579	7	"aangenaam"	1	1
"384"	3	"v"	128	4	2	2	5	216	0	5	5	1	632	10	"onsympathiek"	1	1
"385"	4	"v"	1	1	1	1	2	216	0	6	6	1	812	1	"humeurig"	1	1
"386"	4	"v"	2	1	1	1	7	216	1	5	5	1	671	1	"vriendelijk"	1	1
"387"	4	"v"	3	1	1	1	7	216	0	6	6	1	570	1	"irritant"	1	1
"389"	4	"v"	5	1	1	1	7	216	0	6	6	1	787	7	"onsympathiek"	1	1
"390"	4	"v"	6	1	1	1	6	216	1	5	5	1	634	7	"liefhebbend"	1	1
"391"	4	"v"	7	1	1	1	6	216	0	6	6	1	894	1	"stug"	1	1
"392"	4	"v"	8	1	1	1	0	216	0	6	6	1	586	1	"irritant"	0	2
"393"	4	"v"	9	1	1	2	1	216	0	6	6	1	519	1	"irritant"	0	3
"394"	4	"v"	10	1	1	2	1	216	0	6	6	1	731	9	"onaardig"	0	3
"395"	4	"v"	11	1	1	1	6	216	0	6	6	1	498	7	"onaardig"	1	1
"396"	4	"v"	12	1	1	2	1	216	1	5	5	1	508	1	"mooi"	0	3
"397"	4	"v"	13	1	1	2	5	216	1	5	5	1	754	1	"lief"	0	2
"398"	4	"v"	14	1	1	1	2	216	0	6	6	1	729	1	"irritant"	1	1
"399"	4	"v"	15	1	1	1	2	216	0	6	6	1	829	1	"onaardig"	1	1
"400"	4	"v"	16	1	1	2	3	216	0	6	6	1	685	1	"onaardig"	1	1
"401"	4	"v"	17	1	1	2	1	216	1	5	5	1	716	10	"liefhebbend"	0	3
"402"	4	"v"	18	1	1	2	1	216	1	5	5	1	656	1	"lief"	0	3
"403"	4	"v"	19	1	1	2	1	216	1	5	5	1	536	1	"liefhebbend"	0	3
"404"	4	"v"	20	1	1	1	2	216	1	5	5	1	653	7	"lief"	1	1
"405"	4	"v"	21	1	1	2	3	216	1	5	5	1	570	6	"aangenaam"	1	1
"406"	4	"v"	22	1	1	1	2	216	0	6	6	1	640	1	"onaardig"	1	1
"407"	4	"v"	23	1	1	2	3	216	1	5	5	1	616	10	"aangenaam"	1	1
"408"	4	"v"	24	1	1	1	6	216	1	5	5	1	775	1	"liefhebbend"	1	1
"409"	4	"v"	25	1	1	2	4	216	0	6	6	1	730	1	"onaardig"	1	1
"410"	4	"v"	26	1	1	2	3	216	1	5	5	1	552	1	"mooi"	1	1
"411"	4	"v"	27	1	1	1	6	216	1	5	5	1	791	9	"sympathiek"	1	1
"412"	4	"v"	28	1	1	1	7	216	1	5	5	1	504	1	"sympathiek"	1	1
"413"	4	"v"	29	1	1	2	4	216	0	6	6	1	672	1	"onsympathiek"	1	1
"414"	4	"v"	30	1	1	2	5	216	1	5	5	1	700	9	"liefhebbend"	0	2
"415"	4	"v"	31	1	1	2	3	216	0	6	6	1	673	7	"stug"	1	1
"416"	4	"v"	32	1	1	1	0	216	0	6	6	1	572	1	"irritant"	0	2
"417"	4	"v"	33	2	1	1	7	216	0	6	6	1	791	10	"stug"	1	1
"418"	4	"v"	34	2	1	1	7	216	0	6	6	1	649	1	"onaardig"	1	1
"419"	4	"v"	35	2	1	2	5	216	0	6	6	1	675	1	"humeurig"	0	2
"420"	4	"v"	36	2	1	1	2	216	1	5	5	1	582	7	"liefhebbend"	1	1
"421"	4	"v"	37	2	1	1	2	216	1	5	5	1	543	7	"liefhebbend"	1	1
"422"	4	"v"	38	2	1	1	2	216	0	6	6	1	763	1	"onsympathiek"	1	1
"423"	4	"v"	39	2	1	1	2	216	1	5	5	1	991	6	"sympathiek"	1	1
"424"	4	"v"	40	2	1	2	5	216	1	5	5	1	550	1	"liefhebbend"	0	2
"425"	4	"v"	41	2	1	1	0	216	1	5	5	1	543	1	"liefhebbend"	0	2
"426"	4	"v"	42	2	1	1	2	216	1	5	5	1	791	1	"aangenaam"	1	1
"427"	4	"v"	43	2	1	2	1	216	0	6	6	1	572	9	"irritant"	0	3
"428"	4	"v"	44	2	1	1	6	216	1	5	5	1	508	1	"aangenaam"	1	1
"429"	4	"v"	45	2	1	2	3	216	0	6	6	1	771	1	"onsympathiek"	1	1
"430"	4	"v"	46	2	1	2	4	216	1	5	5	1	557	1	"sympathiek"	1	1
"431"	4	"v"	47	2	1	1	0	216	1	5	5	1	498	7	"vriendelijk"	0	2
"432"	4	"v"	48	2	1	1	2	216	0	6	6	1	604	1	"irritant"	1	1
"433"	4	"v"	49	2	1	2	4	216	0	6	6	1	574	9	"onaardig"	1	1
"434"	4	"v"	50	2	1	1	7	216	1	5	5	1	480	1	"liefhebbend"	1	1
"436"	4	"v"	52	2	1	1	2	216	1	5	5	1	603	9	"vriendelijk"	1	1
"437"	4	"v"	53	2	1	2	5	216	1	5	5	1	532	9	"aangenaam"	0	2
"438"	4	"v"	54	2	1	1	0	216	1	5	5	1	506	1	"mooi"	0	2
"439"	4	"v"	55	2	1	2	4	216	0	6	6	1	679	1	"onaardig"	1	1
"440"	4	"v"	56	2	1	1	6	216	1	5	5	1	562	1	"vriendelijk"	1	1
"441"	4	"v"	57	2	1	1	6	216	0	6	6	1	834	1	"onaardig"	1	1
"442"	4	"v"	58	2	1	2	3	216	1	5	5	1	561	1	"lief"	1	1
"443"	4	"v"	59	2	1	2	3	216	1	5	5	1	550	7	"sympathiek"	1	1
"445"	4	"v"	61	2	1	1	2	216	0	6	6	1	864	1	"onaardig"	1	1
"446"	4	"v"	62	2	1	1	0	216	0	6	6	1	994	1	"humeurig"	0	2
"447"	4	"v"	63	2	1	2	4	216	0	6	6	1	533	9	"humeurig"	1	1
"448"	4	"v"	64	2	1	1	6	216	0	6	6	1	745	9	"onvriendelijk"	1	1
"449"	4	"v"	65	3	1	1	7	216	1	5	5	1	751	1	"sympathiek"	1	1
"451"	4	"v"	67	3	1	1	7	216	0	6	6	1	660	1	"onsympathiek"	1	1
"452"	4	"v"	68	3	1	2	1	216	0	6	6	1	504	1	"onsympathiek"	0	3
"453"	4	"v"	69	3	1	1	6	216	1	5	5	1	798	1	"liefhebbend"	1	1
"454"	4	"v"	70	3	1	2	3	216	0	6	6	1	613	9	"stug"	1	1
"455"	4	"v"	71	3	1	2	1	216	0	6	6	1	610	1	"onaardig"	0	3
"457"	4	"v"	73	3	1	1	0	216	0	6	6	1	563	1	"stug"	0	2
"458"	4	"v"	74	3	1	1	7	216	0	6	6	1	599	1	"humeurig"	1	1
"459"	4	"v"	75	3	1	2	5	216	1	5	5	1	600	9	"lief"	0	2
"460"	4	"v"	76	3	1	1	0	216	0	6	6	1	744	1	"onvriendelijk"	0	2
"461"	4	"v"	77	3	1	2	1	216	1	5	5	1	526	7	"liefhebbend"	0	3
"462"	4	"v"	78	3	1	2	4	216	0	6	6	1	637	7	"onaardig"	1	1
"463"	4	"v"	79	3	1	1	7	216	1	5	5	1	546	7	"mooi"	1	1
"464"	4	"v"	80	3	1	2	5	216	0	6	6	1	494	10	"humeurig"	0	2
"465"	4	"v"	81	3	1	2	1	216	1	5	5	1	593	1	"aangenaam"	0	3
"467"	4	"v"	83	3	1	2	5	216	0	6	6	1	564	1	"onsympathiek"	0	2
"468"	4	"v"	84	3	1	2	4	216	1	5	5	1	693	7	"aangenaam"	1	1
"469"	4	"v"	85	3	1	2	1	216	0	6	6	1	690	1	"onsympathiek"	0	3
"470"	4	"v"	86	3	1	1	0	216	0	6	6	1	612	1	"irritant"	0	2
"472"	4	"v"	88	3	1	2	5	216	0	6	6	1	668	6	"onsympathiek"	0	2
"473"	4	"v"	89	3	1	1	2	216	1	5	5	1	465	1	"mooi"	1	1
"474"	4	"v"	90	3	1	1	6	216	1	5	5	1	654	1	"sympathiek"	1	1
"475"	4	"v"	91	3	1	2	3	216	1	5	5	1	731	1	"lief"	1	1
"477"	4	"v"	93	3	1	1	7	216	1	5	5	1	579	1	"mooi"	1	1
"478"	4	"v"	94	3	1	2	3	216	0	6	6	1	602	7	"onaardig"	1	1
"479"	4	"v"	95	3	1	1	0	216	0	6	6	1	612	7	"humeurig"	0	2
"480"	4	"v"	96	3	1	1	7	216	1	5	5	1	756	1	"aangenaam"	1	1
"481"	4	"v"	97	4	1	1	6	216	0	6	6	1	765	7	"onvriendelijk"	1	1
"482"	4	"v"	98	4	1	1	7	216	0	6	6	1	626	7	"onvriendelijk"	1	1
"483"	4	"v"	99	4	1	1	7	216	0	6	6	1	541	1	"irritant"	1	1
"484"	4	"v"	100	4	1	2	5	216	0	6	6	1	586	1	"onsympathiek"	0	2
"485"	4	"v"	101	4	1	2	3	216	0	6	6	1	691	1	"onaardig"	1	1
"486"	4	"v"	102	4	1	1	2	216	0	6	6	1	593	1	"stug"	1	1
"487"	4	"v"	103	4	1	2	3	216	0	6	6	1	639	9	"onsympathiek"	1	1
"488"	4	"v"	104	4	1	2	5	216	1	5	5	1	588	9	"mooi"	0	2
"489"	4	"v"	105	4	1	1	6	216	1	5	5	1	728	1	"lief"	1	1
"490"	4	"v"	106	4	1	1	2	216	1	5	5	1	465	1	"lief"	1	1
"491"	4	"v"	107	4	1	2	1	216	1	5	5	1	787	1	"aangenaam"	0	3
"492"	4	"v"	108	4	1	2	3	216	0	6	6	1	986	7	"humeurig"	1	1
"493"	4	"v"	109	4	1	2	5	216	0	6	6	1	436	9	"irritant"	0	2
"494"	4	"v"	110	4	1	1	6	216	0	6	6	1	547	6	"humeurig"	1	1
"495"	4	"v"	111	4	1	1	0	216	0	6	6	1	442	7	"humeurig"	0	2
"496"	4	"v"	112	4	1	2	1	216	0	6	6	1	500	7	"stug"	0	3
"497"	4	"v"	113	4	1	1	0	216	1	5	5	1	592	1	"mooi"	0	2
"498"	4	"v"	114	4	1	2	3	216	1	5	5	1	559	1	"sympathiek"	1	1
"499"	4	"v"	115	4	1	2	4	216	0	6	6	1	608	1	"stug"	1	1
"500"	4	"v"	116	4	1	1	0	216	1	5	5	1	537	1	"vriendelijk"	0	2
"502"	4	"v"	118	4	1	1	0	216	1	5	5	1	661	10	"liefhebbend"	0	2
"503"	4	"v"	119	4	1	2	5	216	0	6	6	1	628	1	"onvriendelijk"	0	2
"504"	4	"v"	120	4	1	2	1	216	0	6	6	1	513	10	"onaardig"	0	3
"505"	4	"v"	121	4	1	1	7	216	1	5	5	1	702	7	"aangenaam"	1	1
"506"	4	"v"	122	4	1	2	4	216	1	5	5	1	608	1	"sympathiek"	1	1
"507"	4	"v"	123	4	1	1	0	216	1	5	5	1	701	8	"vriendelijk"	0	2
"508"	4	"v"	124	4	1	2	3	216	1	5	5	1	536	7	"liefhebbend"	1	1
"509"	4	"v"	125	4	1	2	4	216	1	5	5	1	533	1	"mooi"	1	1
"510"	4	"v"	126	4	1	2	4	216	1	5	5	1	444	1	"mooi"	1	1
"511"	4	"v"	127	4	1	1	6	216	0	6	6	1	700	1	"humeurig"	1	1
"512"	4	"v"	128	4	1	2	4	216	1	5	5	1	558	1	"liefhebbend"	1	1
"514"	5	"v"	2	1	1	2	3	216	0	6	6	1	678	8	"humeurig"	1	1
"515"	5	"v"	3	1	1	1	7	216	0	6	6	1	642	1	"onsympathiek"	1	1
"516"	5	"v"	4	1	1	2	3	216	1	5	5	1	342	9	"sympathiek"	1	1
"517"	5	"v"	5	1	1	1	1	216	1	5	5	1	456	7	"aangenaam"	1	1
"518"	5	"v"	6	1	1	1	1	216	0	6	6	1	586	7	"humeurig"	1	1
"519"	5	"v"	7	1	1	2	2	216	0	6	6	1	662	9	"stug"	1	1
"520"	5	"v"	8	1	1	1	1	216	1	5	5	1	501	1	"lief"	1	1
"521"	5	"v"	9	1	1	1	7	216	0	6	6	1	609	1	"stug"	1	1
"522"	5	"v"	10	1	1	2	5	216	0	6	6	1	537	7	"humeurig"	1	1
"523"	5	"v"	11	1	1	1	6	216	0	6	6	1	531	1	"irritant"	1	1
"524"	5	"v"	12	1	1	2	2	216	1	5	5	1	569	1	"lief"	1	1
"525"	5	"v"	13	1	1	2	5	216	1	5	5	1	581	1	"sympathiek"	1	1
"526"	5	"v"	14	1	1	1	7	216	0	6	6	1	545	1	"humeurig"	1	1
"527"	5	"v"	15	1	1	1	0	216	0	6	6	1	558	10	"onsympathiek"	1	1
"529"	5	"v"	17	1	1	1	7	216	0	6	6	1	591	1	"irritant"	1	1
"530"	5	"v"	18	1	1	1	6	216	0	6	6	1	523	1	"irritant"	1	1
"531"	5	"v"	19	1	1	1	6	216	1	5	5	1	473	1	"mooi"	1	1
"532"	5	"v"	20	1	1	2	4	216	0	6	6	1	526	1	"humeurig"	1	1
"533"	5	"v"	21	1	1	2	2	216	0	6	6	1	583	7	"stug"	1	1
"534"	5	"v"	22	1	1	2	4	216	0	6	6	1	398	1	"stug"	1	1
"535"	5	"v"	23	1	1	2	4	216	0	6	6	1	501	1	"irritant"	1	1
"536"	5	"v"	24	1	1	1	6	216	0	6	6	1	439	7	"irritant"	1	1
"537"	5	"v"	25	1	1	2	5	216	1	5	5	1	432	7	"lief"	1	1
"538"	5	"v"	26	1	1	2	5	216	0	6	6	1	520	1	"irritant"	1	1
"539"	5	"v"	27	1	1	2	2	216	1	5	5	1	421	1	"vriendelijk"	1	1
"540"	5	"v"	28	1	1	2	3	216	0	6	6	1	661	1	"onaardig"	1	1
"541"	5	"v"	29	1	1	2	3	216	0	6	6	1	485	7	"stug"	1	1
"542"	5	"v"	30	1	1	2	3	216	1	5	5	1	455	1	"vriendelijk"	1	1
"543"	5	"v"	31	1	1	1	1	216	1	5	5	1	471	10	"aangenaam"	1	1
"544"	5	"v"	32	1	1	1	7	216	1	5	5	1	474	9	"vriendelijk"	1	1
"545"	5	"v"	33	2	1	1	7	216	1	5	5	1	530	1	"sympathiek"	1	1
"546"	5	"v"	34	2	1	2	2	216	0	6	6	1	555	1	"onvriendelijk"	1	1
"547"	5	"v"	35	2	1	1	1	216	0	6	6	1	458	1	"onvriendelijk"	1	1
"548"	5	"v"	36	2	1	2	5	216	0	6	6	1	565	1	"onsympathiek"	1	1
"549"	5	"v"	37	2	1	2	5	216	1	5	5	1	472	1	"vriendelijk"	1	1
"550"	5	"v"	38	2	1	2	2	216	1	5	5	1	409	1	"mooi"	1	1
"551"	5	"v"	39	2	1	1	6	216	0	6	6	1	433	9	"stug"	1	1
"553"	5	"v"	41	2	1	2	3	216	1	5	5	1	480	7	"lief"	1	1
"554"	5	"v"	42	2	1	1	0	216	1	5	5	1	426	7	"sympathiek"	1	1
"555"	5	"v"	43	2	1	2	5	216	0	6	6	1	480	1	"onsympathiek"	1	1
"556"	5	"v"	44	2	1	1	0	216	1	5	5	1	578	1	"liefhebbend"	1	1
"557"	5	"v"	45	2	1	1	1	216	1	5	5	1	410	6	"liefhebbend"	1	1
"558"	5	"v"	46	2	1	2	2	216	1	5	5	1	467	7	"mooi"	1	1
"559"	5	"v"	47	2	1	1	7	216	1	5	5	1	433	1	"mooi"	1	1
"560"	5	"v"	48	2	1	2	5	216	0	6	6	1	678	1	"onsympathiek"	1	1
"561"	5	"v"	49	2	1	1	0	216	0	6	6	1	556	1	"humeurig"	1	1
"562"	5	"v"	50	2	1	2	5	216	1	5	5	1	509	1	"vriendelijk"	1	1
"563"	5	"v"	51	2	1	1	7	216	1	5	5	1	472	1	"aangenaam"	1	1
"564"	5	"v"	52	2	1	1	6	216	0	6	6	1	467	1	"stug"	1	1
"565"	5	"v"	53	2	1	2	5	216	0	6	6	1	435	1	"onvriendelijk"	1	1
"566"	5	"v"	54	2	1	1	1	216	1	5	5	1	472	1	"vriendelijk"	1	1
"567"	5	"v"	55	2	1	1	0	216	1	5	5	1	471	7	"liefhebbend"	1	1
"568"	5	"v"	56	2	1	2	2	216	0	6	6	1	448	8	"onaardig"	1	1
"569"	5	"v"	57	2	1	2	3	216	0	6	6	1	462	7	"onvriendelijk"	1	1
"570"	5	"v"	58	2	1	1	0	216	1	5	5	1	461	1	"liefhebbend"	1	1
"571"	5	"v"	59	2	1	1	0	216	1	5	5	1	504	9	"liefhebbend"	1	1
"572"	5	"v"	60	2	1	2	4	216	1	5	5	1	436	6	"aangenaam"	1	1
"573"	5	"v"	61	2	1	1	0	216	0	6	6	1	460	1	"irritant"	1	1
"574"	5	"v"	62	2	1	1	7	216	0	6	6	1	507	1	"humeurig"	1	1
"575"	5	"v"	63	2	1	1	6	216	1	5	5	1	552	7	"liefhebbend"	1	1
"576"	5	"v"	64	2	1	2	5	216	1	5	5	1	511	10	"sympathiek"	1	1
"577"	5	"v"	65	3	1	1	6	216	0	6	6	1	416	7	"onsympathiek"	1	1
"578"	5	"v"	66	3	1	1	1	216	0	6	6	1	496	1	"onaardig"	1	1
"579"	5	"v"	67	3	1	1	7	216	1	5	5	1	460	7	"vriendelijk"	1	1
"580"	5	"v"	68	3	1	1	0	216	1	5	5	1	427	7	"aangenaam"	1	1
"581"	5	"v"	69	3	1	2	3	216	1	5	5	1	453	8	"sympathiek"	1	1
"582"	5	"v"	70	3	1	1	6	216	0	6	6	1	500	1	"onaardig"	1	1
"583"	5	"v"	71	3	1	2	5	216	0	6	6	1	634	7	"onsympathiek"	1	1
"584"	5	"v"	72	3	1	2	3	216	1	5	5	1	500	1	"sympathiek"	1	1
"585"	5	"v"	73	3	1	2	4	216	1	5	5	1	442	1	"aangenaam"	1	1
"586"	5	"v"	74	3	1	2	4	216	1	5	5	1	458	1	"mooi"	1	1
"587"	5	"v"	75	3	1	2	4	216	1	5	5	1	522	7	"liefhebbend"	1	1
"588"	5	"v"	76	3	1	2	2	216	1	5	5	1	497	1	"vriendelijk"	1	1
"589"	5	"v"	77	3	1	1	6	216	1	5	5	1	479	10	"sympathiek"	1	1
"590"	5	"v"	78	3	1	2	4	216	1	5	5	1	432	7	"lief"	1	1
"591"	5	"v"	79	3	1	1	7	216	0	6	6	1	534	10	"irritant"	1	1
"592"	5	"v"	80	3	1	2	4	216	1	5	5	1	414	1	"aangenaam"	1	1
"593"	5	"v"	81	3	1	1	0	216	1	5	5	1	518	7	"vriendelijk"	1	1
"594"	5	"v"	82	3	1	1	7	216	0	6	6	1	552	6	"stug"	1	1
"595"	5	"v"	83	3	1	1	1	216	1	5	5	1	543	1	"lief"	1	1
"596"	5	"v"	84	3	1	1	1	216	0	6	6	1	613	6	"humeurig"	1	1
"597"	5	"v"	85	3	1	1	0	216	0	6	6	1	560	7	"onsympathiek"	1	1
"598"	5	"v"	86	3	1	2	3	216	1	5	5	1	538	7	"aangenaam"	1	1
"599"	5	"v"	87	3	1	2	2	216	0	6	6	1	469	7	"onsympathiek"	1	1
"600"	5	"v"	88	3	1	2	5	216	1	5	5	1	484	1	"liefhebbend"	1	1
"601"	5	"v"	89	3	1	1	1	216	1	5	5	1	497	1	"vriendelijk"	1	1
"602"	5	"v"	90	3	1	1	0	216	0	6	6	1	471	7	"irritant"	1	1
"604"	5	"v"	92	3	1	2	2	216	0	6	6	1	461	1	"irritant"	1	1
"605"	5	"v"	93	3	1	2	4	216	0	6	6	1	516	1	"onaardig"	1	1
"606"	5	"v"	94	3	1	1	1	216	0	6	6	1	468	1	"onsympathiek"	1	1
"607"	5	"v"	95	3	1	2	2	216	1	5	5	1	555	1	"lief"	1	1
"608"	5	"v"	96	3	1	2	5	216	0	6	6	1	433	8	"irritant"	1	1
"609"	5	"v"	97	4	1	1	6	216	1	5	5	1	475	7	"aangenaam"	1	1
"610"	5	"v"	98	4	1	2	4	216	1	5	5	1	497	1	"liefhebbend"	1	1
"611"	5	"v"	99	4	1	1	0	216	1	5	5	1	459	7	"aangenaam"	1	1
"612"	5	"v"	100	4	1	1	6	216	0	6	6	1	521	1	"humeurig"	1	1
"613"	5	"v"	101	4	1	1	0	216	0	6	6	1	514	1	"humeurig"	1	1
"614"	5	"v"	102	4	1	2	4	216	1	5	5	1	547	10	"sympathiek"	1	1
"615"	5	"v"	103	4	1	1	1	216	0	6	6	1	547	1	"onvriendelijk"	1	1
"616"	5	"v"	104	4	1	2	2	216	1	5	5	1	478	1	"aangenaam"	1	1
"617"	5	"v"	105	4	1	1	7	216	0	6	6	1	424	8	"onaardig"	1	1
"618"	5	"v"	106	4	1	1	6	216	1	5	5	1	470	1	"lief"	1	1
"619"	5	"v"	107	4	1	2	3	216	1	5	5	1	597	1	"sympathiek"	1	1
"620"	5	"v"	108	4	1	2	3	216	0	6	6	1	544	1	"irritant"	1	1
"621"	5	"v"	109	4	1	2	2	216	1	5	5	1	624	1	"vriendelijk"	1	1
"622"	5	"v"	110	4	1	2	2	216	0	6	6	1	535	1	"humeurig"	1	1
"623"	5	"v"	111	4	1	2	3	216	0	6	6	1	605	1	"stug"	1	1
"624"	5	"v"	112	4	1	1	6	216	1	5	5	1	473	10	"lief"	1	1
"625"	5	"v"	113	4	1	1	7	216	1	5	5	1	578	9	"liefhebbend"	1	1
"627"	5	"v"	115	4	1	2	3	216	1	5	5	1	469	1	"lief"	1	1
"628"	5	"v"	116	4	1	2	4	216	0	6	6	1	416	1	"onsympathiek"	1	1
"629"	5	"v"	117	4	1	2	5	216	1	5	5	1	407	1	"liefhebbend"	1	1
"630"	5	"v"	118	4	1	1	6	216	1	5	5	1	513	1	"vriendelijk"	1	1
"631"	5	"v"	119	4	1	2	3	216	0	6	6	1	510	1	"irritant"	1	1
"632"	5	"v"	120	4	1	2	4	216	0	6	6	1	512	1	"onsympathiek"	1	1
"633"	5	"v"	121	4	1	2	4	216	0	6	6	1	575	8	"humeurig"	1	1
"634"	5	"v"	122	4	1	2	5	216	1	5	5	1	487	10	"vriendelijk"	1	1
"635"	5	"v"	123	4	1	1	7	216	1	5	5	1	504	1	"aangenaam"	1	1
"636"	5	"v"	124	4	1	1	0	216	0	6	6	1	444	7	"onaardig"	1	1
"638"	5	"v"	126	4	1	1	1	216	1	5	5	1	447	7	"lief"	1	1
"639"	5	"v"	127	4	1	1	7	216	1	5	5	1	487	7	"sympathiek"	1	1
"640"	5	"v"	128	4	1	2	2	216	0	6	6	1	511	1	"onvriendelijk"	1	1
"642"	6	"m"	2	1	2	2	5	216	1	6	6	1	744	7	"vriendelijk"	0	2
"643"	6	"m"	3	1	2	2	2	216	1	6	6	1	689	1	"aangenaam"	1	1
"645"	6	"m"	5	1	2	2	5	216	0	5	5	1	972	1	"onsympathiek"	0	2
"646"	6	"m"	6	1	2	1	7	216	1	6	6	1	597	1	"mooi"	0	2
"647"	6	"m"	7	1	2	2	4	216	1	6	6	1	685	7	"lief"	1	1
"648"	6	"m"	8	1	2	1	1	216	1	6	6	1	635	1	"mooi"	0	3
"649"	6	"m"	9	1	2	2	4	216	0	5	5	1	745	6	"onvriendelijk"	1	1
"651"	6	"m"	11	1	2	1	0	216	0	5	5	1	801	1	"irritant"	0	3
"652"	6	"m"	12	1	2	1	1	216	0	5	5	1	683	9	"irritant"	0	3
"653"	6	"m"	13	1	2	1	7	216	0	5	5	1	774	7	"onvriendelijk"	0	2
"654"	6	"m"	14	1	2	1	1	216	1	6	6	1	632	1	"lief"	0	3
"655"	6	"m"	15	1	2	1	1	216	1	6	6	1	721	1	"vriendelijk"	0	3
"656"	6	"m"	16	1	2	2	5	216	1	6	6	1	941	9	"sympathiek"	0	2
"657"	6	"m"	17	1	2	2	3	216	1	6	6	1	753	1	"vriendelijk"	0	2
"658"	6	"m"	18	1	2	1	6	216	1	6	6	1	825	7	"sympathiek"	0	3
"659"	6	"m"	19	1	2	1	7	216	0	5	5	1	854	1	"humeurig"	0	2
"660"	6	"m"	20	1	2	2	3	216	1	6	6	1	725	1	"vriendelijk"	0	2
"661"	6	"m"	21	1	2	2	3	216	1	6	6	1	748	1	"aangenaam"	0	2
"662"	6	"m"	22	1	2	2	3	216	1	6	6	1	672	10	"aangenaam"	0	2
"663"	6	"m"	23	1	2	1	1	216	1	6	6	1	807	9	"liefhebbend"	0	3
"664"	6	"m"	24	1	2	2	2	216	0	5	5	1	729	7	"stug"	1	1
"665"	6	"m"	25	1	2	1	6	216	0	5	5	1	736	1	"onaardig"	0	3
"666"	6	"m"	26	1	2	2	4	216	1	6	6	1	637	7	"lief"	1	1
"667"	6	"m"	27	1	2	2	4	216	1	6	6	1	943	7	"sympathiek"	1	1
"668"	6	"m"	28	1	2	1	1	216	0	5	5	1	606	1	"onaardig"	0	3
"669"	6	"m"	29	1	2	1	0	216	0	5	5	1	667	7	"irritant"	0	3
"670"	6	"m"	30	1	2	1	6	216	0	5	5	1	580	1	"onsympathiek"	0	3
"671"	6	"m"	31	1	2	1	1	216	0	5	5	1	591	7	"onsympathiek"	0	3
"672"	6	"m"	32	1	2	1	7	216	0	5	5	1	572	7	"onvriendelijk"	0	2
"673"	6	"m"	33	2	2	1	7	216	1	6	6	1	628	1	"lief"	0	2
"674"	6	"m"	34	2	2	2	2	216	1	6	6	1	724	1	"liefhebbend"	1	1
"675"	6	"m"	35	2	2	2	3	216	0	5	5	1	626	1	"stug"	0	2
"676"	6	"m"	36	2	2	1	6	216	1	6	6	1	607	8	"lief"	0	3
"677"	6	"m"	37	2	2	1	6	216	1	6	6	1	670	1	"aangenaam"	0	3
"678"	6	"m"	38	2	2	2	2	216	1	6	6	1	633	7	"vriendelijk"	1	1
"679"	6	"m"	39	2	2	2	4	216	0	5	5	1	809	10	"humeurig"	1	1
"680"	6	"m"	40	2	2	2	4	216	0	5	5	1	734	1	"onvriendelijk"	1	1
"681"	6	"m"	41	2	2	1	1	216	1	6	6	1	632	1	"lief"	0	3
"682"	6	"m"	42	2	2	1	0	216	0	5	5	1	687	8	"onvriendelijk"	0	3
"683"	6	"m"	43	2	2	1	1	216	0	5	5	1	601	1	"onaardig"	0	3
"684"	6	"m"	44	2	2	2	5	216	0	5	5	1	597	7	"onaardig"	0	2
"685"	6	"m"	45	2	2	2	2	216	0	5	5	1	623	7	"irritant"	1	1
"686"	6	"m"	46	2	2	2	3	216	0	5	5	1	848	7	"humeurig"	0	2
"687"	6	"m"	47	2	2	2	5	216	0	5	5	1	612	1	"stug"	0	2
"688"	6	"m"	48	2	2	1	7	216	1	6	6	1	755	1	"aangenaam"	0	2
"689"	6	"m"	49	2	2	1	6	216	1	6	6	1	765	7	"liefhebbend"	0	3
"690"	6	"m"	50	2	2	1	0	216	1	6	6	1	750	1	"aangenaam"	0	3
"691"	6	"m"	51	2	2	1	7	216	0	5	5	1	653	6	"onaardig"	0	2
"692"	6	"m"	52	2	2	2	4	216	0	5	5	1	593	7	"stug"	1	1
"693"	6	"m"	53	2	2	1	1	216	0	5	5	1	615	9	"stug"	0	3
"694"	6	"m"	54	2	2	1	7	216	1	6	6	1	841	1	"sympathiek"	0	2
"695"	6	"m"	55	2	2	2	5	216	0	5	5	1	661	1	"irritant"	0	2
"696"	6	"m"	56	2	2	1	7	216	1	6	6	1	693	1	"liefhebbend"	0	2
"697"	6	"m"	57	2	2	1	1	216	0	5	5	1	868	1	"humeurig"	0	3
"698"	6	"m"	58	2	2	2	5	216	1	6	6	1	637	1	"liefhebbend"	0	2
"699"	6	"m"	59	2	2	1	1	216	0	5	5	1	929	7	"onvriendelijk"	0	3
"700"	6	"m"	60	2	2	2	4	216	0	5	5	1	622	7	"onaardig"	1	1
"701"	6	"m"	61	2	2	2	4	216	0	5	5	1	638	1	"irritant"	1	1
"702"	6	"m"	62	2	2	2	2	216	1	6	6	1	604	1	"mooi"	1	1
"703"	6	"m"	63	2	2	1	1	216	1	6	6	1	554	7	"lief"	0	3
"704"	6	"m"	64	2	2	1	0	216	1	6	6	1	696	1	"vriendelijk"	0	3
"705"	6	"m"	65	3	2	1	1	216	1	6	6	1	632	7	"mooi"	0	3
"706"	6	"m"	66	3	2	1	6	216	1	6	6	1	636	1	"sympathiek"	0	3
"707"	6	"m"	67	3	2	1	0	216	1	6	6	1	544	1	"sympathiek"	0	3
"708"	6	"m"	68	3	2	2	5	216	1	6	6	1	643	1	"sympathiek"	0	2
"709"	6	"m"	69	3	2	1	6	216	0	5	5	1	660	1	"onvriendelijk"	0	3
"710"	6	"m"	70	3	2	2	5	216	0	5	5	1	636	6	"irritant"	0	2
"711"	6	"m"	71	3	2	2	2	216	0	5	5	1	656	1	"onaardig"	1	1
"712"	6	"m"	72	3	2	2	2	216	1	6	6	1	572	1	"lief"	1	1
"713"	6	"m"	73	3	2	1	6	216	0	5	5	1	607	6	"irritant"	0	3
"714"	6	"m"	74	3	2	1	6	216	1	6	6	1	617	9	"aangenaam"	0	3
"715"	6	"m"	75	3	2	1	0	216	1	6	6	1	571	1	"mooi"	0	3
"716"	6	"m"	76	3	2	1	7	216	0	5	5	1	617	1	"stug"	0	2
"717"	6	"m"	77	3	2	1	6	216	1	6	6	1	517	1	"liefhebbend"	0	3
"718"	6	"m"	78	3	2	2	4	216	0	5	5	1	544	1	"stug"	1	1
"719"	6	"m"	79	3	2	2	5	216	1	6	6	1	500	7	"sympathiek"	0	2
"720"	6	"m"	80	3	2	2	3	216	1	6	6	1	538	1	"sympathiek"	0	2
"721"	6	"m"	81	3	2	1	0	216	1	6	6	1	436	1	"lief"	0	3
"722"	6	"m"	82	3	2	1	0	216	1	6	6	1	502	1	"sympathiek"	0	3
"724"	6	"m"	84	3	2	2	3	216	0	5	5	1	522	1	"irritant"	0	2
"725"	6	"m"	85	3	2	1	7	216	1	6	6	1	469	1	"lief"	0	2
"726"	6	"m"	86	3	2	1	0	216	0	5	5	1	581	1	"stug"	0	3
"727"	6	"m"	87	3	2	2	4	216	0	5	5	1	691	10	"irritant"	1	1
"728"	6	"m"	88	3	2	1	6	216	0	5	5	1	521	1	"onaardig"	0	3
"729"	6	"m"	89	3	2	2	2	216	0	5	5	1	575	1	"stug"	1	1
"730"	6	"m"	90	3	2	1	1	216	1	6	6	1	535	1	"liefhebbend"	0	3
"731"	6	"m"	91	3	2	2	4	216	1	6	6	1	571	7	"vriendelijk"	1	1
"732"	6	"m"	92	3	2	2	3	216	1	6	6	1	521	6	"liefhebbend"	0	2
"733"	6	"m"	93	3	2	1	0	216	0	5	5	1	620	1	"onaardig"	0	3
"734"	6	"m"	94	3	2	2	2	216	1	6	6	1	612	1	"aangenaam"	1	1
"735"	6	"m"	95	3	2	1	7	216	0	5	5	1	556	1	"irritant"	0	2
"736"	6	"m"	96	3	2	2	3	216	1	6	6	1	552	1	"sympathiek"	0	2
"737"	6	"m"	97	4	2	1	7	216	1	6	6	1	576	10	"sympathiek"	0	2
"738"	6	"m"	98	4	2	2	3	216	0	5	5	1	711	1	"irritant"	0	2
"740"	6	"m"	100	4	2	2	2	216	0	5	5	1	600	1	"irritant"	1	1
"741"	6	"m"	101	4	2	2	4	216	1	6	6	1	516	10	"liefhebbend"	1	1
"742"	6	"m"	102	4	2	2	5	216	1	6	6	1	643	6	"sympathiek"	0	2
"743"	6	"m"	103	4	2	1	1	216	0	5	5	1	645	7	"onaardig"	0	3
"744"	6	"m"	104	4	2	1	7	216	0	5	5	1	545	1	"onvriendelijk"	0	2
"745"	6	"m"	105	4	2	2	3	216	0	5	5	1	607	6	"humeurig"	0	2
"746"	6	"m"	106	4	2	2	2	216	0	5	5	1	517	1	"onaardig"	1	1
"747"	6	"m"	107	4	2	2	5	216	0	5	5	1	533	1	"humeurig"	0	2
"748"	6	"m"	108	4	2	2	2	216	0	5	5	1	560	1	"onsympathiek"	1	1
"749"	6	"m"	109	4	2	2	2	216	1	6	6	1	569	1	"mooi"	1	1
"750"	6	"m"	110	4	2	2	5	216	1	6	6	1	679	1	"vriendelijk"	0	2
"751"	6	"m"	111	4	2	2	3	216	1	6	6	1	564	1	"vriendelijk"	0	2
"752"	6	"m"	112	4	2	1	7	216	1	6	6	1	814	7	"sympathiek"	0	2
"753"	6	"m"	113	4	2	2	5	216	1	6	6	1	783	7	"liefhebbend"	0	2
"754"	6	"m"	114	4	2	1	6	216	1	6	6	1	718	10	"aangenaam"	0	3
"755"	6	"m"	115	4	2	1	0	216	0	5	5	1	476	7	"onaardig"	0	3
"756"	6	"m"	116	4	2	2	4	216	1	6	6	1	581	1	"vriendelijk"	1	1
"757"	6	"m"	117	4	2	1	0	216	0	5	5	1	501	7	"onvriendelijk"	0	3
"758"	6	"m"	118	4	2	1	0	216	1	6	6	1	467	1	"lief"	0	3
"759"	6	"m"	119	4	2	1	0	216	1	6	6	1	450	1	"lief"	0	3
"760"	6	"m"	120	4	2	1	6	216	0	5	5	1	615	1	"stug"	0	3
"761"	6	"m"	121	4	2	2	3	216	0	5	5	1	515	1	"stug"	0	2
"762"	6	"m"	122	4	2	1	0	216	0	5	5	1	776	1	"humeurig"	0	3
"763"	6	"m"	123	4	2	2	4	216	1	6	6	1	507	9	"lief"	1	1
"764"	6	"m"	124	4	2	2	5	216	0	5	5	1	566	8	"stug"	0	2
"765"	6	"m"	125	4	2	2	3	216	0	5	5	1	630	7	"onaardig"	0	2
"766"	6	"m"	126	4	2	2	2	216	1	6	6	1	528	8	"vriendelijk"	1	1
"767"	6	"m"	127	4	2	1	6	216	0	5	5	1	647	1	"onaardig"	0	3
"768"	6	"m"	128	4	2	2	4	216	1	6	6	1	528	6	"liefhebbend"	1	1
"773"	7	"v"	5	1	2	1	2	216	1	6	6	1	1066	7	"liefhebbend"	1	1
"774"	7	"v"	6	1	2	1	5	216	1	6	6	1	486	1	"sympathiek"	0	2
"775"	7	"v"	7	1	2	1	7	216	0	5	5	1	728	1	"onaardig"	1	1
"777"	7	"v"	9	1	2	2	6	216	0	5	5	1	1372	6	"irritant"	0	3
"778"	7	"v"	10	1	2	1	7	216	1	6	6	1	600	1	"lief"	1	1
"779"	7	"v"	11	1	2	2	1	216	1	6	6	1	568	1	"lief"	1	1
"780"	7	"v"	12	1	2	2	6	216	0	5	5	1	529	1	"stug"	0	3
"781"	7	"v"	13	1	2	2	3	216	1	6	6	1	809	1	"aangenaam"	1	1
"783"	7	"v"	15	1	2	1	5	216	0	5	5	1	842	1	"stug"	0	2
"784"	7	"v"	16	1	2	1	2	216	1	6	6	1	773	6	"sympathiek"	1	1
"785"	7	"v"	17	1	2	2	1	216	0	5	5	1	630	1	"onvriendelijk"	1	1
"786"	7	"v"	18	1	2	1	5	216	1	6	6	1	926	1	"lief"	0	2
"788"	7	"v"	20	1	2	1	7	216	1	6	6	1	1117	6	"sympathiek"	1	1
"789"	7	"v"	21	1	2	2	6	216	1	6	6	1	724	1	"aangenaam"	0	3
"791"	7	"v"	23	1	2	2	3	216	1	6	6	1	663	1	"liefhebbend"	1	1
"792"	7	"v"	24	1	2	1	0	216	0	5	5	1	572	6	"irritant"	1	1
"793"	7	"v"	25	1	2	1	5	216	0	5	5	1	724	8	"onvriendelijk"	0	2
"795"	7	"v"	27	1	2	1	2	216	1	6	6	1	857	6	"lief"	1	1
"796"	7	"v"	28	1	2	2	4	216	0	5	5	1	738	1	"stug"	0	3
"797"	7	"v"	29	1	2	2	3	216	1	6	6	1	778	1	"vriendelijk"	1	1
"798"	7	"v"	30	1	2	1	2	216	0	5	5	1	783	1	"onaardig"	1	1
"799"	7	"v"	31	1	2	2	4	216	1	6	6	1	567	7	"vriendelijk"	0	3
"800"	7	"v"	32	1	2	2	3	216	1	6	6	1	724	1	"aangenaam"	1	1
"801"	7	"v"	33	2	2	2	1	216	1	6	6	1	546	6	"aangenaam"	1	1
"802"	7	"v"	34	2	2	2	6	216	1	6	6	1	520	7	"liefhebbend"	0	3
"803"	7	"v"	35	2	2	1	7	216	0	5	5	1	566	1	"irritant"	1	1
"804"	7	"v"	36	2	2	1	2	216	0	5	5	1	593	1	"stug"	1	1
"805"	7	"v"	37	2	2	1	0	216	0	5	5	1	767	7	"onvriendelijk"	1	1
"806"	7	"v"	38	2	2	2	6	216	1	6	6	1	601	7	"aangenaam"	0	3
"807"	7	"v"	39	2	2	2	1	216	1	6	6	1	690	9	"sympathiek"	1	1
"808"	7	"v"	40	2	2	1	7	216	1	6	6	1	869	7	"aangenaam"	1	1
"809"	7	"v"	41	2	2	1	5	216	0	5	5	1	582	8	"stug"	0	2
"810"	7	"v"	42	2	2	2	4	216	1	6	6	1	486	1	"mooi"	0	3
"811"	7	"v"	43	2	2	2	6	216	1	6	6	1	483	1	"mooi"	0	3
"812"	7	"v"	44	2	2	2	4	216	1	6	6	1	435	1	"mooi"	0	3
"813"	7	"v"	45	2	2	2	1	216	1	6	6	1	376	7	"mooi"	1	1
"815"	7	"v"	47	2	2	2	6	216	0	5	5	1	736	1	"irritant"	0	3
"816"	7	"v"	48	2	2	1	5	216	0	5	5	1	680	1	"onaardig"	0	2
"817"	7	"v"	49	2	2	1	0	216	1	6	6	1	498	1	"aangenaam"	1	1
"818"	7	"v"	50	2	2	2	1	216	0	5	5	1	778	8	"irritant"	1	1
"820"	7	"v"	52	2	2	2	4	216	0	5	5	1	705	1	"onaardig"	0	3
"821"	7	"v"	53	2	2	1	0	216	0	5	5	1	502	7	"irritant"	1	1
"822"	7	"v"	54	2	2	1	5	216	1	6	6	1	498	7	"mooi"	0	2
"823"	7	"v"	55	2	2	1	7	216	1	6	6	1	400	1	"mooi"	1	1
"826"	7	"v"	58	2	2	2	6	216	1	6	6	1	740	1	"aangenaam"	0	3
"827"	7	"v"	59	2	2	2	3	216	0	5	5	1	585	6	"onvriendelijk"	1	1
"828"	7	"v"	60	2	2	2	1	216	1	6	6	1	835	1	"aangenaam"	1	1
"829"	7	"v"	61	2	2	2	4	216	0	5	5	1	816	6	"onvriendelijk"	0	3
"830"	7	"v"	62	2	2	1	5	216	1	6	6	1	514	1	"mooi"	0	2
"831"	7	"v"	63	2	2	1	0	216	1	6	6	1	777	1	"vriendelijk"	1	1
"832"	7	"v"	64	2	2	1	2	216	0	5	5	1	539	7	"stug"	1	1
"833"	7	"v"	65	3	2	2	3	216	0	5	5	1	785	7	"onaardig"	1	1
"834"	7	"v"	66	3	2	2	4	216	0	5	5	1	570	7	"onvriendelijk"	0	3
"835"	7	"v"	67	3	2	2	1	216	0	5	5	1	644	1	"humeurig"	1	1
"836"	7	"v"	68	3	2	2	4	216	1	6	6	1	575	1	"lief"	0	3
"837"	7	"v"	69	3	2	2	3	216	0	5	5	1	573	1	"onaardig"	1	1
"838"	7	"v"	70	3	2	1	5	216	0	5	5	1	539	7	"onaardig"	0	2
"839"	7	"v"	71	3	2	1	0	216	1	6	6	1	523	1	"aangenaam"	1	1
"840"	7	"v"	72	3	2	2	3	216	1	6	6	1	553	1	"aangenaam"	1	1
"842"	7	"v"	74	3	2	2	1	216	0	5	5	1	1477	7	"onvriendelijk"	1	1
"843"	7	"v"	75	3	2	2	6	216	1	6	6	1	964	7	"sympathiek"	0	3
"844"	7	"v"	76	3	2	1	2	216	0	5	5	1	1015	1	"irritant"	1	1
"845"	7	"v"	77	3	2	1	2	216	1	6	6	1	741	7	"lief"	1	1
"846"	7	"v"	78	3	2	2	4	216	1	6	6	1	599	1	"mooi"	0	3
"847"	7	"v"	79	3	2	1	5	216	1	6	6	1	702	1	"liefhebbend"	0	2
"848"	7	"v"	80	3	2	2	4	216	0	5	5	1	702	8	"humeurig"	0	3
"850"	7	"v"	82	3	2	1	7	216	0	5	5	1	881	1	"onaardig"	1	1
"851"	7	"v"	83	3	2	1	0	216	0	5	5	1	597	1	"onsympathiek"	1	1
"852"	7	"v"	84	3	2	1	7	216	1	6	6	1	530	1	"mooi"	1	1
"853"	7	"v"	85	3	2	1	0	216	1	6	6	1	579	1	"mooi"	1	1
"854"	7	"v"	86	3	2	2	4	216	0	5	5	1	601	1	"humeurig"	0	3
"855"	7	"v"	87	3	2	2	4	216	1	6	6	1	607	1	"vriendelijk"	0	3
"856"	7	"v"	88	3	2	1	7	216	1	6	6	1	673	7	"liefhebbend"	1	1
"857"	7	"v"	89	3	2	1	2	216	1	6	6	1	486	6	"mooi"	1	1
"858"	7	"v"	90	3	2	2	6	216	0	5	5	1	1111	1	"onsympathiek"	0	3
"859"	7	"v"	91	3	2	2	6	216	1	6	6	1	561	1	"vriendelijk"	0	3
"860"	7	"v"	92	3	2	2	6	216	0	5	5	1	530	7	"onaardig"	0	3
"861"	7	"v"	93	3	2	1	5	216	0	5	5	1	530	10	"onaardig"	0	2
"862"	7	"v"	94	3	2	1	7	216	1	6	6	1	504	1	"vriendelijk"	1	1
"863"	7	"v"	95	3	2	1	7	216	0	5	5	1	588	6	"stug"	1	1
"864"	7	"v"	96	3	2	2	3	216	1	6	6	1	586	1	"aangenaam"	1	1
"865"	7	"v"	97	4	2	1	2	216	1	6	6	1	584	6	"mooi"	1	1
"866"	7	"v"	98	4	2	1	2	216	1	6	6	1	545	1	"vriendelijk"	1	1
"867"	7	"v"	99	4	2	2	1	216	0	5	5	1	583	1	"onsympathiek"	1	1
"868"	7	"v"	100	4	2	1	5	216	0	5	5	1	572	7	"onaardig"	0	2
"869"	7	"v"	101	4	2	1	0	216	1	6	6	1	477	7	"vriendelijk"	1	1
"870"	7	"v"	102	4	2	1	0	216	1	6	6	1	558	1	"liefhebbend"	1	1
"871"	7	"v"	103	4	2	2	1	216	1	6	6	1	554	1	"mooi"	1	1
"872"	7	"v"	104	4	2	1	5	216	1	6	6	1	577	7	"liefhebbend"	0	2
"873"	7	"v"	105	4	2	1	7	216	0	5	5	1	714	7	"onvriendelijk"	1	1
"874"	7	"v"	106	4	2	2	1	216	0	5	5	1	559	8	"humeurig"	1	1
"875"	7	"v"	107	4	2	2	1	216	0	5	5	1	541	1	"onsympathiek"	1	1
"876"	7	"v"	108	4	2	1	7	216	0	5	5	1	777	7	"onaardig"	1	1
"878"	7	"v"	110	4	2	2	3	216	0	5	5	1	1050	1	"onaardig"	1	1
"880"	7	"v"	112	4	2	1	5	216	1	6	6	1	597	7	"lief"	0	2
"881"	7	"v"	113	4	2	2	4	216	1	6	6	1	523	7	"lief"	0	3
"882"	7	"v"	114	4	2	1	0	216	1	6	6	1	633	1	"vriendelijk"	1	1
"883"	7	"v"	115	4	2	2	3	216	0	5	5	1	534	7	"stug"	1	1
"884"	7	"v"	116	4	2	2	3	216	1	6	6	1	549	9	"vriendelijk"	1	1
"886"	7	"v"	118	4	2	2	6	216	1	6	6	1	533	1	"lief"	0	3
"887"	7	"v"	119	4	2	1	2	216	1	6	6	1	572	1	"aangenaam"	1	1
"891"	7	"v"	123	4	2	2	1	216	1	6	6	1	1097	9	"liefhebbend"	1	1
"892"	7	"v"	124	4	2	2	6	216	0	5	5	1	874	6	"onaardig"	0	3
"893"	7	"v"	125	4	2	2	3	216	0	5	5	1	942	6	"irritant"	1	1
"894"	7	"v"	126	4	2	1	0	216	0	5	5	1	681	8	"irritant"	1	1
"895"	7	"v"	127	4	2	2	4	216	1	6	6	1	1156	1	"mooi"	0	3
"896"	7	"v"	128	4	2	1	0	216	0	5	5	1	874	7	"humeurig"	1	1
"897"	8	"m"	1	1	1	1	7	216	1	5	5	1	705	1	"aangenaam"	0	3
"899"	8	"m"	3	1	1	2	4	216	1	5	5	1	671	7	"vriendelijk"	0	2
"900"	8	"m"	4	1	1	1	0	216	1	5	5	1	540	1	"mooi"	1	1
"901"	8	"m"	5	1	1	2	4	216	0	6	6	1	684	1	"stug"	0	2
"902"	8	"m"	6	1	1	2	1	216	1	5	5	1	556	6	"lief"	1	1
"903"	8	"m"	7	1	1	2	4	216	1	5	5	1	701	1	"lief"	0	2
"904"	8	"m"	8	1	1	1	7	216	0	6	6	1	564	1	"onsympathiek"	0	3
"905"	8	"m"	9	1	1	1	7	216	1	5	5	1	601	1	"aangenaam"	0	3
"906"	8	"m"	10	1	1	1	2	216	0	6	6	1	754	7	"stug"	1	1
"907"	8	"m"	11	1	1	2	3	216	0	6	6	1	613	1	"onsympathiek"	0	2
"908"	8	"m"	12	1	1	2	1	216	1	5	5	1	611	7	"vriendelijk"	1	1
"909"	8	"m"	13	1	1	1	7	216	0	6	6	1	961	6	"onsympathiek"	0	3
"912"	8	"m"	16	1	1	1	2	216	1	5	5	1	591	7	"mooi"	1	1
"913"	8	"m"	17	1	1	1	0	216	0	6	6	1	794	1	"onaardig"	1	1
"914"	8	"m"	18	1	1	2	4	216	1	5	5	1	597	1	"vriendelijk"	0	2
"915"	8	"m"	19	1	1	1	7	216	0	6	6	1	625	8	"irritant"	0	3
"916"	8	"m"	20	1	1	2	6	216	1	5	5	1	473	1	"mooi"	0	2
"917"	8	"m"	21	1	1	1	5	216	1	5	5	1	637	10	"sympathiek"	0	2
"918"	8	"m"	22	1	1	2	6	216	0	6	6	1	515	7	"onsympathiek"	0	2
"919"	8	"m"	23	1	1	1	2	216	1	5	5	1	472	7	"aangenaam"	1	1
"920"	8	"m"	24	1	1	2	1	216	0	6	6	1	532	1	"onaardig"	1	1
"922"	8	"m"	26	1	1	2	3	216	0	6	6	1	611	7	"irritant"	0	2
"923"	8	"m"	27	1	1	1	2	216	0	6	6	1	556	1	"onsympathiek"	1	1
"924"	8	"m"	28	1	1	1	0	216	0	6	6	1	522	7	"onvriendelijk"	1	1
"925"	8	"m"	29	1	1	2	4	216	1	5	5	1	653	9	"liefhebbend"	0	2
"926"	8	"m"	30	1	1	1	0	216	0	6	6	1	539	1	"onaardig"	1	1
"927"	8	"m"	31	1	1	1	7	216	1	5	5	1	774	6	"aangenaam"	0	3
"928"	8	"m"	32	1	1	1	5	216	1	5	5	1	544	7	"mooi"	0	2
"929"	8	"m"	33	2	1	1	7	216	0	6	6	1	537	7	"onaardig"	0	3
"930"	8	"m"	34	2	1	2	3	216	0	6	6	1	570	1	"onsympathiek"	0	2
"931"	8	"m"	35	2	1	2	3	216	1	5	5	1	478	1	"mooi"	0	2
"932"	8	"m"	36	2	1	2	1	216	0	6	6	1	515	7	"onvriendelijk"	1	1
"933"	8	"m"	37	2	1	1	2	216	1	5	5	1	446	1	"mooi"	1	1
"934"	8	"m"	38	2	1	2	1	216	1	5	5	1	750	7	"aangenaam"	1	1
"935"	8	"m"	39	2	1	1	2	216	1	5	5	1	666	1	"sympathiek"	1	1
"936"	8	"m"	40	2	1	2	6	216	1	5	5	1	520	1	"sympathiek"	0	2
"937"	8	"m"	41	2	1	1	0	216	0	6	6	1	670	1	"onvriendelijk"	1	1
"938"	8	"m"	42	2	1	2	4	216	0	6	6	1	650	1	"onsympathiek"	0	2
"940"	8	"m"	44	2	1	2	6	216	1	5	5	1	728	7	"mooi"	0	2
"941"	8	"m"	45	2	1	2	6	216	0	6	6	1	1039	7	"onsympathiek"	0	2
"942"	8	"m"	46	2	1	1	5	216	0	6	6	1	486	6	"onaardig"	0	2
"943"	8	"m"	47	2	1	2	4	216	0	6	6	1	647	7	"stug"	0	2
"944"	8	"m"	48	2	1	1	0	216	0	6	6	1	1039	7	"humeurig"	1	1
"945"	8	"m"	49	2	1	1	5	216	1	5	5	1	622	9	"sympathiek"	0	2
"946"	8	"m"	50	2	1	2	1	216	0	6	6	1	607	7	"onaardig"	1	1
"947"	8	"m"	51	2	1	2	6	216	1	5	5	1	832	1	"liefhebbend"	0	2
"948"	8	"m"	52	2	1	2	6	216	1	5	5	1	617	6	"mooi"	0	2
"949"	8	"m"	53	2	1	1	5	216	0	6	6	1	559	7	"onvriendelijk"	0	2
"950"	8	"m"	54	2	1	2	6	216	0	6	6	1	633	1	"onaardig"	0	2
"952"	8	"m"	56	2	1	2	3	216	0	6	6	1	655	6	"irritant"	0	2
"953"	8	"m"	57	2	1	1	0	216	0	6	6	1	731	7	"onvriendelijk"	1	1
"954"	8	"m"	58	2	1	2	3	216	0	6	6	1	504	1	"onaardig"	0	2
"955"	8	"m"	59	2	1	2	3	216	0	6	6	1	528	1	"irritant"	0	2
"956"	8	"m"	60	2	1	1	7	216	0	6	6	1	422	7	"onsympathiek"	0	3
"957"	8	"m"	61	2	1	2	1	216	0	6	6	1	604	7	"stug"	1	1
"958"	8	"m"	62	2	1	1	0	216	1	5	5	1	552	7	"vriendelijk"	1	1
"959"	8	"m"	63	2	1	1	0	216	0	6	6	1	574	7	"stug"	1	1
"960"	8	"m"	64	2	1	1	5	216	0	6	6	1	599	1	"stug"	0	2
"961"	8	"m"	65	3	1	1	7	216	1	5	5	1	607	1	"sympathiek"	0	3
"962"	8	"m"	66	3	1	2	4	216	0	6	6	1	591	7	"stug"	0	2
"963"	8	"m"	67	3	1	1	2	216	0	6	6	1	446	1	"onsympathiek"	1	1
"964"	8	"m"	68	3	1	2	3	216	1	5	5	1	428	7	"mooi"	0	2
"965"	8	"m"	69	3	1	2	6	216	1	5	5	1	539	1	"aangenaam"	0	2
"966"	8	"m"	70	3	1	2	1	216	0	6	6	1	496	1	"irritant"	1	1
"967"	8	"m"	71	3	1	1	5	216	0	6	6	1	546	8	"stug"	0	2
"968"	8	"m"	72	3	1	2	4	216	0	6	6	1	444	10	"onsympathiek"	0	2
"969"	8	"m"	73	3	1	1	7	216	1	5	5	1	524	1	"lief"	0	3
"970"	8	"m"	74	3	1	1	5	216	0	6	6	1	571	7	"stug"	0	2
"971"	8	"m"	75	3	1	2	3	216	1	5	5	1	482	1	"lief"	0	2
"972"	8	"m"	76	3	1	1	5	216	1	5	5	1	494	6	"sympathiek"	0	2
"973"	8	"m"	77	3	1	1	5	216	0	6	6	1	620	1	"onaardig"	0	2
"974"	8	"m"	78	3	1	1	5	216	0	6	6	1	477	1	"onaardig"	0	2
"975"	8	"m"	79	3	1	1	0	216	0	6	6	1	502	6	"irritant"	1	1
"977"	8	"m"	81	3	1	1	2	216	0	6	6	1	528	1	"stug"	1	1
"978"	8	"m"	82	3	1	2	6	216	1	5	5	1	524	7	"lief"	0	2
"979"	8	"m"	83	3	1	2	6	216	0	6	6	1	588	1	"stug"	0	2
"980"	8	"m"	84	3	1	1	0	216	1	5	5	1	580	9	"liefhebbend"	1	1
"981"	8	"m"	85	3	1	2	1	216	1	5	5	1	557	1	"sympathiek"	1	1
"982"	8	"m"	86	3	1	1	5	216	1	5	5	1	524	8	"liefhebbend"	0	2
"983"	8	"m"	87	3	1	2	3	216	1	5	5	1	575	6	"mooi"	0	2
"984"	8	"m"	88	3	1	2	3	216	0	6	6	1	588	6	"onvriendelijk"	0	2
"985"	8	"m"	89	3	1	2	6	216	0	6	6	1	491	1	"stug"	0	2
"986"	8	"m"	90	3	1	2	4	216	1	5	5	1	723	6	"sympathiek"	0	2
"987"	8	"m"	91	3	1	1	2	216	1	5	5	1	583	7	"aangenaam"	1	1
"988"	8	"m"	92	3	1	2	3	216	1	5	5	1	517	1	"mooi"	0	2
"989"	8	"m"	93	3	1	1	2	216	0	6	6	1	663	1	"humeurig"	1	1
"990"	8	"m"	94	3	1	1	2	216	0	6	6	1	621	6	"onsympathiek"	1	1
"991"	8	"m"	95	3	1	2	4	216	1	5	5	1	521	1	"aangenaam"	0	2
"992"	8	"m"	96	3	1	1	2	216	1	5	5	1	474	7	"liefhebbend"	1	1
"993"	8	"m"	97	4	1	2	6	216	0	6	6	1	709	1	"irritant"	0	2
"994"	8	"m"	98	4	1	1	5	216	1	5	5	1	502	8	"liefhebbend"	0	2
"995"	8	"m"	99	4	1	2	1	216	1	5	5	1	387	1	"lief"	1	1
"996"	8	"m"	100	4	1	2	1	216	0	6	6	1	493	6	"humeurig"	1	1
"997"	8	"m"	101	4	1	1	0	216	1	5	5	1	464	7	"lief"	1	1
"998"	8	"m"	102	4	1	2	3	216	1	5	5	1	412	6	"mooi"	0	2
"999"	8	"m"	103	4	1	1	5	216	1	5	5	1	416	7	"lief"	0	2
"1000"	8	"m"	104	4	1	1	7	216	1	5	5	1	512	7	"sympathiek"	0	3
"1001"	8	"m"	105	4	1	2	1	216	1	5	5	1	540	6	"aangenaam"	1	1
"1002"	8	"m"	106	4	1	1	5	216	1	5	5	1	487	10	"liefhebbend"	0	2
"1003"	8	"m"	107	4	1	1	0	216	1	5	5	1	473	1	"vriendelijk"	1	1
"1004"	8	"m"	108	4	1	2	4	216	1	5	5	1	404	7	"aangenaam"	0	2
"1005"	8	"m"	109	4	1	1	2	216	1	5	5	1	428	1	"vriendelijk"	1	1
"1006"	8	"m"	110	4	1	1	0	216	1	5	5	1	444	1	"sympathiek"	1	1
"1007"	8	"m"	111	4	1	2	6	216	1	5	5	1	481	7	"lief"	0	2
"1008"	8	"m"	112	4	1	1	7	216	0	6	6	1	578	1	"onaardig"	0	3
"1009"	8	"m"	113	4	1	1	7	216	0	6	6	1	652	1	"onsympathiek"	0	3
"1010"	8	"m"	114	4	1	2	6	216	0	6	6	1	540	1	"onaardig"	0	2
"1011"	8	"m"	115	4	1	1	7	216	1	5	5	1	525	1	"vriendelijk"	0	3
"1012"	8	"m"	116	4	1	1	2	216	0	6	6	1	546	6	"stug"	1	1
"1013"	8	"m"	117	4	1	2	1	216	1	5	5	1	652	1	"sympathiek"	1	1
"1014"	8	"m"	118	4	1	1	7	216	1	5	5	1	417	1	"vriendelijk"	0	3
"1015"	8	"m"	119	4	1	2	1	216	0	6	6	1	450	7	"onaardig"	1	1
"1016"	8	"m"	120	4	1	2	4	216	0	6	6	1	529	1	"onaardig"	0	2
"1017"	8	"m"	121	4	1	2	1	216	0	6	6	1	517	1	"onvriendelijk"	1	1
"1018"	8	"m"	122	4	1	1	0	216	1	5	5	1	504	1	"sympathiek"	1	1
"1019"	8	"m"	123	4	1	2	4	216	1	5	5	1	424	9	"lief"	0	2
"1020"	8	"m"	124	4	1	1	2	216	1	5	5	1	535	1	"aangenaam"	1	1
"1021"	8	"m"	125	4	1	1	5	216	0	6	6	1	451	51	"onvriendelijk"	0	2
"1022"	8	"m"	126	4	1	2	3	216	0	6	6	1	499	1	"onvriendelijk"	0	2
"1023"	8	"m"	127	4	1	2	3	216	1	5	5	1	447	6	"mooi"	0	2
"1024"	8	"m"	128	4	1	2	3	216	1	5	5	1	872	7	"aangenaam"	0	2
"1025"	9	"v"	1	1	1	2	7	216	1	5	5	1	840	6	"sympathiek"	1	1
"1026"	9	"v"	2	1	1	2	6	216	1	5	5	1	495	1	"mooi"	0	3
"1027"	9	"v"	3	1	1	1	1	216	1	5	5	1	603	6	"mooi"	1	1
"1028"	9	"v"	4	1	1	2	0	216	1	5	5	1	559	1	"lief"	0	2
"1029"	9	"v"	5	1	1	1	4	216	1	5	5	1	492	6	"liefhebbend"	0	3
"1030"	9	"v"	6	1	1	2	0	216	1	5	5	1	416	1	"vriendelijk"	0	2
"1031"	9	"v"	7	1	1	1	5	216	0	6	6	1	625	9	"humeurig"	0	2
"1032"	9	"v"	8	1	1	1	4	216	1	5	5	1	535	11	"vriendelijk"	0	3
"1033"	9	"v"	9	1	1	1	5	216	1	5	5	1	670	7	"sympathiek"	0	2
"1034"	9	"v"	10	1	1	2	6	216	0	6	6	1	640	7	"humeurig"	0	3
"1035"	9	"v"	11	1	1	2	2	216	0	6	6	1	661	1	"onsympathiek"	1	1
"1036"	9	"v"	12	1	1	2	2	216	0	6	6	1	743	7	"stug"	1	1
"1037"	9	"v"	13	1	1	1	5	216	1	5	5	1	640	7	"vriendelijk"	0	2
"1038"	9	"v"	14	1	1	2	7	216	0	6	6	1	487	7	"humeurig"	1	1
"1039"	9	"v"	15	1	1	2	7	216	1	5	5	1	512	6	"vriendelijk"	1	1
"1041"	9	"v"	17	1	1	1	4	216	0	6	6	1	716	1	"onvriendelijk"	0	3
"1042"	9	"v"	18	1	1	2	7	216	1	5	5	1	565	7	"aangenaam"	1	1
"1043"	9	"v"	19	1	1	1	3	216	1	5	5	1	509	7	"liefhebbend"	1	1
"1044"	9	"v"	20	1	1	2	6	216	1	5	5	1	511	1	"liefhebbend"	0	3
"1045"	9	"v"	21	1	1	1	4	216	1	5	5	1	437	7	"lief"	0	3
"1046"	9	"v"	22	1	1	2	2	216	1	5	5	1	586	8	"sympathiek"	1	1
"1047"	9	"v"	23	1	1	2	2	216	1	5	5	1	339	1	"vriendelijk"	1	1
"1048"	9	"v"	24	1	1	2	7	216	0	6	6	1	668	1	"humeurig"	1	1
"1050"	9	"v"	26	1	1	2	0	216	1	5	5	1	558	1	"mooi"	0	2
"1051"	9	"v"	27	1	1	2	0	216	0	6	6	1	526	8	"onsympathiek"	0	2
"1052"	9	"v"	28	1	1	2	0	216	1	5	5	1	620	1	"vriendelijk"	0	2
"1054"	9	"v"	30	1	1	1	3	216	1	5	5	1	598	1	"aangenaam"	1	1
"1055"	9	"v"	31	1	1	1	1	216	0	6	6	1	797	6	"humeurig"	1	1
"1056"	9	"v"	32	1	1	1	1	216	1	5	5	1	593	1	"aangenaam"	1	1
"1057"	9	"v"	33	2	1	2	0	216	1	5	5	1	501	1	"mooi"	0	2
"1058"	9	"v"	34	2	1	2	2	216	0	6	6	1	510	1	"stug"	1	1
"1059"	9	"v"	35	2	1	1	3	216	0	6	6	1	540	1	"irritant"	1	1
"1060"	9	"v"	36	2	1	1	4	216	0	6	6	1	466	7	"onsympathiek"	0	3
"1061"	9	"v"	37	2	1	2	7	216	1	5	5	1	624	6	"lief"	1	1
"1062"	9	"v"	38	2	1	1	1	216	1	5	5	1	801	7	"sympathiek"	1	1
"1063"	9	"v"	39	2	1	1	5	216	0	6	6	1	538	7	"stug"	0	2
"1064"	9	"v"	40	2	1	1	3	216	1	5	5	1	545	1	"liefhebbend"	1	1
"1065"	9	"v"	41	2	1	1	1	216	0	6	6	1	609	6	"onsympathiek"	1	1
"1066"	9	"v"	42	2	1	2	2	216	1	5	5	1	462	7	"aangenaam"	1	1
"1067"	9	"v"	43	2	1	2	7	216	0	6	6	1	642	1	"onaardig"	1	1
"1068"	9	"v"	44	2	1	2	2	216	0	6	6	1	525	23	"onsympathiek"	1	1
"1069"	9	"v"	45	2	1	2	0	216	0	6	6	1	731	7	"irritant"	0	2
"1070"	9	"v"	46	2	1	2	6	216	0	6	6	1	493	7	"stug"	0	3
"1071"	9	"v"	47	2	1	1	3	216	0	6	6	1	680	1	"onvriendelijk"	1	1
"1072"	9	"v"	48	2	1	2	0	216	1	5	5	1	546	1	"vriendelijk"	0	2
"1073"	9	"v"	49	2	1	1	3	216	0	6	6	1	890	1	"humeurig"	1	1
"1074"	9	"v"	50	2	1	1	4	216	1	5	5	1	400	1	"liefhebbend"	0	3
"1075"	9	"v"	51	2	1	1	5	216	1	5	5	1	547	8	"sympathiek"	0	2
"1076"	9	"v"	52	2	1	2	6	216	1	5	5	1	593	8	"aangenaam"	0	3
"1077"	9	"v"	53	2	1	2	2	216	1	5	5	1	442	7	"aangenaam"	1	1
"1079"	9	"v"	55	2	1	1	3	216	0	6	6	1	495	7	"onvriendelijk"	1	1
"1080"	9	"v"	56	2	1	1	5	216	0	6	6	1	440	1	"onsympathiek"	0	2
"1081"	9	"v"	57	2	1	1	1	216	0	6	6	1	638	1	"onaardig"	1	1
"1082"	9	"v"	58	2	1	1	4	216	0	6	6	1	479	1	"onvriendelijk"	0	3
"1083"	9	"v"	59	2	1	2	6	216	0	6	6	1	556	8	"stug"	0	3
"1084"	9	"v"	60	2	1	1	1	216	0	6	6	1	486	1	"onvriendelijk"	1	1
"1085"	9	"v"	61	2	1	2	6	216	1	5	5	1	880	1	"liefhebbend"	0	3
"1086"	9	"v"	62	2	1	1	3	216	0	6	6	1	437	7	"irritant"	1	1
"1087"	9	"v"	63	2	1	2	6	216	1	5	5	1	824	1	"liefhebbend"	0	3
"1088"	9	"v"	64	2	1	1	1	216	0	6	6	1	754	1	"onsympathiek"	1	1
"1089"	9	"v"	65	3	1	2	2	216	0	6	6	1	606	1	"irritant"	1	1
"1090"	9	"v"	66	3	1	2	0	216	0	6	6	1	668	1	"onsympathiek"	0	2
"1091"	9	"v"	67	3	1	1	5	216	0	6	6	1	630	1	"onvriendelijk"	0	2
"1092"	9	"v"	68	3	1	2	0	216	0	6	6	1	462	7	"onsympathiek"	0	2
"1093"	9	"v"	69	3	1	2	7	216	0	6	6	1	443	8	"onsympathiek"	1	1
"1094"	9	"v"	70	3	1	1	1	216	0	6	6	1	545	1	"humeurig"	1	1
"1095"	9	"v"	71	3	1	1	1	216	1	5	5	1	496	7	"sympathiek"	1	1
"1096"	9	"v"	72	3	1	1	3	216	1	5	5	1	473	8	"sympathiek"	1	1
"1097"	9	"v"	73	3	1	1	3	216	1	5	5	1	585	6	"vriendelijk"	1	1
"1098"	9	"v"	74	3	1	1	3	216	0	6	6	1	537	7	"irritant"	1	1
"1099"	9	"v"	75	3	1	2	7	216	1	5	5	1	600	9	"aangenaam"	1	1
"1100"	9	"v"	76	3	1	1	1	216	1	5	5	1	518	1	"sympathiek"	1	1
"1101"	9	"v"	77	3	1	2	7	216	1	5	5	1	581	6	"liefhebbend"	1	1
"1103"	9	"v"	79	3	1	2	6	216	0	6	6	1	555	1	"onvriendelijk"	0	3
"1104"	9	"v"	80	3	1	1	4	216	0	6	6	1	492	7	"stug"	0	3
"1105"	9	"v"	81	3	1	1	3	216	1	5	5	1	761	7	"vriendelijk"	1	1
"1106"	9	"v"	82	3	1	1	5	216	1	5	5	1	603	7	"aangenaam"	0	2
"1107"	9	"v"	83	3	1	2	2	216	0	6	6	1	472	9	"irritant"	1	1
"1108"	9	"v"	84	3	1	2	7	216	1	5	5	1	683	10	"aangenaam"	1	1
"1109"	9	"v"	85	3	1	1	1	216	1	5	5	1	619	1	"lief"	1	1
"1110"	9	"v"	86	3	1	2	0	216	0	6	6	1	537	6	"onaardig"	0	2
"1111"	9	"v"	87	3	1	1	5	216	1	5	5	1	860	7	"mooi"	0	2
"1112"	9	"v"	88	3	1	2	2	216	0	6	6	1	492	6	"onaardig"	1	1
"1113"	9	"v"	89	3	1	2	6	216	0	6	6	1	470	10	"irritant"	0	3
"1114"	9	"v"	90	3	1	1	5	216	1	5	5	1	567	1	"sympathiek"	0	2
"1117"	9	"v"	93	3	1	2	6	216	0	6	6	1	639	6	"onaardig"	0	3
"1118"	9	"v"	94	3	1	1	5	216	0	6	6	1	537	7	"stug"	0	2
"1119"	9	"v"	95	3	1	2	0	216	0	6	6	1	681	9	"humeurig"	0	2
"1120"	9	"v"	96	3	1	1	4	216	1	5	5	1	491	1	"mooi"	0	3
"1121"	9	"v"	97	4	1	2	0	216	0	6	6	1	731	1	"onaardig"	0	2
"1122"	9	"v"	98	4	1	2	2	216	1	5	5	1	540	1	"lief"	1	1
"1123"	9	"v"	99	4	1	1	4	216	0	6	6	1	579	1	"onsympathiek"	0	3
"1124"	9	"v"	100	4	1	2	7	216	0	6	6	1	840	1	"onvriendelijk"	1	1
"1125"	9	"v"	101	4	1	1	4	216	0	6	6	1	499	1	"stug"	0	3
"1126"	9	"v"	102	4	1	1	3	216	0	6	6	1	733	1	"onvriendelijk"	1	1
"1127"	9	"v"	103	4	1	2	0	216	0	6	6	1	535	6	"onsympathiek"	0	2
"1128"	9	"v"	104	4	1	2	7	216	0	6	6	1	497	1	"stug"	1	1
"1129"	9	"v"	105	4	1	2	6	216	1	5	5	1	676	1	"sympathiek"	0	3
"1130"	9	"v"	106	4	1	2	2	216	0	6	6	1	679	7	"onvriendelijk"	1	1
"1131"	9	"v"	107	4	1	1	3	216	1	5	5	1	536	1	"sympathiek"	1	1
"1132"	9	"v"	108	4	1	1	5	216	0	6	6	1	466	7	"stug"	0	2
"1133"	9	"v"	109	4	1	2	6	216	1	5	5	1	685	1	"sympathiek"	0	3
"1134"	9	"v"	110	4	1	1	4	216	1	5	5	1	615	7	"aangenaam"	0	3
"1135"	9	"v"	111	4	1	1	1	216	1	5	5	1	490	1	"sympathiek"	1	1
"1136"	9	"v"	112	4	1	1	3	216	1	5	5	1	495	8	"lief"	1	1
"1137"	9	"v"	113	4	1	2	7	216	0	6	6	1	561	7	"onaardig"	1	1
"1138"	9	"v"	114	4	1	1	5	216	1	5	5	1	667	1	"aangenaam"	0	2
"1139"	9	"v"	115	4	1	2	6	216	0	6	6	1	789	1	"humeurig"	0	3
"1140"	9	"v"	116	4	1	1	4	216	0	6	6	1	512	1	"humeurig"	0	3
"1141"	9	"v"	117	4	1	2	0	216	1	5	5	1	567	1	"mooi"	0	2
"1142"	9	"v"	118	4	1	2	0	216	1	5	5	1	916	9	"liefhebbend"	0	2
"1143"	9	"v"	119	4	1	1	5	216	0	6	6	1	571	1	"irritant"	0	2
"1144"	9	"v"	120	4	1	2	7	216	0	6	6	1	570	7	"irritant"	1	1
"1145"	9	"v"	121	4	1	2	6	216	1	5	5	1	779	1	"lief"	0	3
"1146"	9	"v"	122	4	1	2	2	216	1	5	5	1	545	1	"vriendelijk"	1	1
"1147"	9	"v"	123	4	1	1	5	216	1	5	5	1	492	6	"lief"	0	2
"1148"	9	"v"	124	4	1	2	2	216	1	5	5	1	732	7	"sympathiek"	1	1
"1149"	9	"v"	125	4	1	2	2	216	1	5	5	1	635	1	"mooi"	1	1
"1150"	9	"v"	126	4	1	1	4	216	0	6	6	1	553	6	"stug"	0	3
"1151"	9	"v"	127	4	1	1	1	216	1	5	5	1	898	10	"lief"	1	1
"1152"	9	"v"	128	4	1	1	5	216	0	6	6	1	852	1	"onsympathiek"	0	2
"1154"	10	"m"	2	1	2	1	4	216	0	5	5	1	1484	6	"onsympathiek"	0	3
"1155"	10	"m"	3	1	2	1	3	216	0	5	5	1	1042	9	"onaardig"	0	3
"1156"	10	"m"	4	1	2	1	4	216	0	5	5	1	1040	1	"irritant"	0	3
"1157"	10	"m"	5	1	2	1	1	216	1	6	6	1	1477	7	"sympathiek"	0	3
"1158"	10	"m"	6	1	2	1	3	216	0	5	5	1	1282	6	"stug"	0	3
"1159"	10	"m"	7	1	2	2	6	216	1	6	6	1	640	7	"aangenaam"	0	3
"1160"	10	"m"	8	1	2	2	2	216	1	6	6	1	705	1	"sympathiek"	0	3
"1161"	10	"m"	9	1	2	2	6	216	1	6	6	1	907	7	"aangenaam"	0	3
"1162"	10	"m"	10	1	2	1	3	216	1	6	6	1	685	1	"sympathiek"	0	3
"1163"	10	"m"	11	1	2	1	4	216	1	6	6	1	546	1	"mooi"	0	3
"1164"	10	"m"	12	1	2	2	0	216	0	5	5	1	594	7	"stug"	0	3
"1165"	10	"m"	13	1	2	2	0	216	0	5	5	1	535	1	"onvriendelijk"	0	3
"1166"	10	"m"	14	1	2	1	4	216	0	5	5	1	584	7	"irritant"	0	3
"1167"	10	"m"	15	1	2	2	6	216	1	6	6	1	647	1	"lief"	0	3
"1168"	10	"m"	16	1	2	1	3	216	1	6	6	1	823	7	"lief"	0	3
"1169"	10	"m"	17	1	2	2	2	216	0	5	5	1	753	1	"humeurig"	0	3
"1170"	10	"m"	18	1	2	2	0	216	0	5	5	1	534	7	"onaardig"	0	3
"1171"	10	"m"	19	1	2	1	1	216	0	5	5	1	653	1	"stug"	0	3
"1172"	10	"m"	20	1	2	1	1	216	1	6	6	1	771	7	"liefhebbend"	0	3
"1173"	10	"m"	21	1	2	2	7	216	1	6	6	1	599	7	"aangenaam"	0	3
"1174"	10	"m"	22	1	2	1	1	216	0	5	5	1	627	1	"irritant"	0	3
"1175"	10	"m"	23	1	2	2	0	216	1	6	6	1	803	7	"sympathiek"	0	3
"1176"	10	"m"	24	1	2	1	4	216	1	6	6	1	601	1	"sympathiek"	0	3
"1177"	10	"m"	25	1	2	2	0	216	1	6	6	1	514	1	"mooi"	0	3
"1178"	10	"m"	26	1	2	2	6	216	1	6	6	1	526	1	"lief"	0	3
"1179"	10	"m"	27	1	2	1	4	216	1	6	6	1	649	1	"aangenaam"	0	3
"1180"	10	"m"	28	1	2	2	2	216	1	6	6	1	608	7	"aangenaam"	0	3
"1181"	10	"m"	29	1	2	2	7	216	1	6	6	1	1238	7	"mooi"	0	3
"1182"	10	"m"	30	1	2	2	0	216	1	6	6	1	504	6	"lief"	0	3
"1183"	10	"m"	31	1	2	2	6	216	0	5	5	1	568	8	"onaardig"	0	3
"1184"	10	"m"	32	1	2	1	1	216	0	5	5	1	544	1	"humeurig"	0	3
"1185"	10	"m"	33	2	2	2	2	216	1	6	6	1	704	1	"aangenaam"	0	3
"1186"	10	"m"	34	2	2	1	5	216	0	5	5	1	609	1	"stug"	0	3
"1187"	10	"m"	35	2	2	2	7	216	1	6	6	1	702	7	"vriendelijk"	0	3
"1188"	10	"m"	36	2	2	2	2	216	1	6	6	1	453	7	"lief"	0	3
"1189"	10	"m"	37	2	2	2	7	216	1	6	6	1	553	6	"aangenaam"	0	3
"1190"	10	"m"	38	2	2	2	2	216	1	6	6	1	661	6	"aangenaam"	0	3
"1191"	10	"m"	39	2	2	2	0	216	0	5	5	1	709	1	"irritant"	0	3
"1193"	10	"m"	41	2	2	1	4	216	1	6	6	1	475	1	"vriendelijk"	0	3
"1194"	10	"m"	42	2	2	2	0	216	0	5	5	1	683	6	"onsympathiek"	0	3
"1195"	10	"m"	43	2	2	2	6	216	0	5	5	1	763	9	"onaardig"	0	3
"1196"	10	"m"	44	2	2	2	7	216	1	6	6	1	511	9	"mooi"	0	3
"1197"	10	"m"	45	2	2	1	5	216	1	6	6	1	450	1	"mooi"	0	3
"1198"	10	"m"	46	2	2	2	2	216	0	5	5	1	867	7	"onvriendelijk"	0	3
"1199"	10	"m"	47	2	2	2	7	216	0	5	5	1	1126	7	"irritant"	0	3
"1200"	10	"m"	48	2	2	1	1	216	0	5	5	1	557	1	"onaardig"	0	3
"1201"	10	"m"	49	2	2	1	1	216	1	6	6	1	758	1	"mooi"	0	3
"1202"	10	"m"	50	2	2	2	2	216	1	6	6	1	501	7	"lief"	0	3
"1203"	10	"m"	51	2	2	2	7	216	1	6	6	1	684	7	"mooi"	0	3
"1204"	10	"m"	52	2	2	1	4	216	1	6	6	1	704	7	"aangenaam"	0	3
"1205"	10	"m"	53	2	2	1	1	216	1	6	6	1	645	6	"liefhebbend"	0	3
"1207"	10	"m"	55	2	2	1	3	216	0	5	5	1	689	7	"onvriendelijk"	0	3
"1208"	10	"m"	56	2	2	2	7	216	1	6	6	1	931	7	"vriendelijk"	0	3
"1209"	10	"m"	57	2	2	2	6	216	1	6	6	1	522	1	"aangenaam"	0	3
"1210"	10	"m"	58	2	2	1	4	216	1	6	6	1	615	7	"mooi"	0	3
"1211"	10	"m"	59	2	2	2	0	216	1	6	6	1	773	1	"vriendelijk"	0	3
"1212"	10	"m"	60	2	2	2	0	216	0	5	5	1	845	10	"humeurig"	0	3
"1213"	10	"m"	61	2	2	2	6	216	0	5	5	1	924	7	"onvriendelijk"	0	3
"1214"	10	"m"	62	2	2	2	2	216	1	6	6	1	562	1	"mooi"	0	3
"1215"	10	"m"	63	2	2	1	5	216	1	6	6	1	765	1	"liefhebbend"	0	3
"1216"	10	"m"	64	2	2	2	2	216	0	5	5	1	1137	1	"onvriendelijk"	0	3
"1217"	10	"m"	65	3	2	1	1	216	1	6	6	1	774	6	"aangenaam"	0	3
"1218"	10	"m"	66	3	2	1	5	216	1	6	6	1	551	7	"aangenaam"	0	3
"1219"	10	"m"	67	3	2	1	5	216	0	5	5	1	656	7	"stug"	0	3
"1220"	10	"m"	68	3	2	2	0	216	1	6	6	1	495	1	"mooi"	0	3
"1221"	10	"m"	69	3	2	2	2	216	0	5	5	1	548	1	"irritant"	0	3
"1222"	10	"m"	70	3	2	2	7	216	1	6	6	1	1166	1	"lief"	0	3
"1223"	10	"m"	71	3	2	1	5	216	0	5	5	1	460	7	"onaardig"	0	3
"1224"	10	"m"	72	3	2	2	7	216	0	5	5	1	619	7	"humeurig"	0	3
"1225"	10	"m"	73	3	2	2	6	216	1	6	6	1	750	7	"aangenaam"	0	3
"1226"	10	"m"	74	3	2	1	1	216	1	6	6	1	449	6	"sympathiek"	0	3
"1227"	10	"m"	75	3	2	1	5	216	1	6	6	1	405	7	"sympathiek"	0	3
"1228"	10	"m"	76	3	2	1	5	216	0	5	5	1	938	1	"onsympathiek"	0	3
"1229"	10	"m"	77	3	2	1	4	216	1	6	6	1	787	7	"liefhebbend"	0	3
"1230"	10	"m"	78	3	2	2	2	216	0	5	5	1	995	7	"onaardig"	0	3
"1231"	10	"m"	79	3	2	2	0	216	0	5	5	1	661	1	"onaardig"	0	3
"1232"	10	"m"	80	3	2	1	3	216	0	5	5	1	644	7	"onsympathiek"	0	3
"1233"	10	"m"	81	3	2	1	3	216	1	6	6	1	619	7	"vriendelijk"	0	3
"1234"	10	"m"	82	3	2	2	0	216	0	5	5	1	760	16	"onaardig"	0	3
"1235"	10	"m"	83	3	2	1	1	216	0	5	5	1	874	6	"onaardig"	0	3
"1236"	10	"m"	84	3	2	2	2	216	0	5	5	1	822	1	"humeurig"	0	3
"1237"	10	"m"	85	3	2	2	7	216	0	5	5	1	578	30	"onaardig"	0	3
"1238"	10	"m"	86	3	2	1	5	216	1	6	6	1	477	6	"vriendelijk"	0	3
"1239"	10	"m"	87	3	2	2	7	216	0	5	5	1	883	1	"onsympathiek"	0	3
"1243"	10	"m"	91	3	2	2	2	216	1	6	6	1	570	1	"vriendelijk"	0	3
"1244"	10	"m"	92	3	2	1	1	216	1	6	6	1	482	1	"liefhebbend"	0	3
"1245"	10	"m"	93	3	2	2	7	216	0	5	5	1	748	8	"irritant"	0	3
"1246"	10	"m"	94	3	2	1	1	216	0	5	5	1	640	1	"onvriendelijk"	0	3
"1247"	10	"m"	95	3	2	1	4	216	0	5	5	1	556	7	"onsympathiek"	0	3
"1248"	10	"m"	96	3	2	1	3	216	0	5	5	1	525	7	"onaardig"	0	3
"1249"	10	"m"	97	4	2	1	3	216	1	6	6	1	604	1	"mooi"	0	3
"1250"	10	"m"	98	4	2	2	6	216	1	6	6	1	495	7	"sympathiek"	0	3
"1251"	10	"m"	99	4	2	1	3	216	1	6	6	1	385	7	"mooi"	0	3
"1252"	10	"m"	100	4	2	1	5	216	0	5	5	1	498	1	"onvriendelijk"	0	3
"1253"	10	"m"	101	4	2	2	6	216	0	5	5	1	552	1	"humeurig"	0	3
"1254"	10	"m"	102	4	2	1	1	216	0	5	5	1	593	7	"onsympathiek"	0	3
"1255"	10	"m"	103	4	2	2	2	216	0	5	5	1	396	1	"onsympathiek"	0	3
"1256"	10	"m"	104	4	2	1	3	216	0	5	5	1	608	9	"irritant"	0	3
"1257"	10	"m"	105	4	2	1	5	216	0	5	5	1	529	7	"stug"	0	3
"1258"	10	"m"	106	4	2	2	0	216	1	6	6	1	1253	1	"aangenaam"	0	3
"1259"	10	"m"	107	4	2	1	4	216	0	5	5	1	525	1	"humeurig"	0	3
"1260"	10	"m"	108	4	2	2	2	216	0	5	5	1	466	1	"onvriendelijk"	0	3
"1261"	10	"m"	109	4	2	1	5	216	1	6	6	1	483	1	"lief"	0	3
"1262"	10	"m"	110	4	2	2	6	216	1	6	6	1	446	7	"sympathiek"	0	3
"1263"	10	"m"	111	4	2	2	6	216	0	5	5	1	507	1	"irritant"	0	3
"1264"	10	"m"	112	4	2	2	0	216	1	6	6	1	508	7	"sympathiek"	0	3
"1265"	10	"m"	113	4	2	2	6	216	0	5	5	1	559	1	"irritant"	0	3
"1266"	10	"m"	114	4	2	2	6	216	0	5	5	1	634	1	"humeurig"	0	3
"1267"	10	"m"	115	4	2	1	3	216	1	6	6	1	885	7	"sympathiek"	0	3
"1268"	10	"m"	116	4	2	1	4	216	0	5	5	1	614	9	"onaardig"	0	3
"1269"	10	"m"	117	4	2	2	0	216	1	6	6	1	600	7	"vriendelijk"	0	3
"1270"	10	"m"	118	4	2	1	4	216	0	5	5	1	524	7	"humeurig"	0	3
"1271"	10	"m"	119	4	2	1	1	216	0	5	5	1	894	7	"onvriendelijk"	0	3
"1272"	10	"m"	120	4	2	1	4	216	1	6	6	1	486	1	"aangenaam"	0	3
"1273"	10	"m"	121	4	2	1	5	216	1	6	6	1	512	7	"sympathiek"	0	3
"1274"	10	"m"	122	4	2	2	7	216	0	5	5	1	747	1	"onaardig"	0	3
"1275"	10	"m"	123	4	2	1	5	216	1	6	6	1	556	8	"mooi"	0	3
"1276"	10	"m"	124	4	2	2	6	216	0	5	5	1	838	1	"onaardig"	0	3
"1277"	10	"m"	125	4	2	1	3	216	0	5	5	1	415	1	"onsympathiek"	0	3
"1278"	10	"m"	126	4	2	2	7	216	0	5	5	1	517	1	"onvriendelijk"	0	3
"1279"	10	"m"	127	4	2	1	3	216	1	6	6	1	602	1	"sympathiek"	0	3
"1280"	10	"m"	128	4	2	1	5	216	0	5	5	1	528	7	"stug"	0	3
"1281"	11	"v"	1	1	2	1	3	216	0	5	5	1	614	7	"irritant"	1	1
"1282"	11	"v"	2	1	2	2	0	216	1	6	6	1	479	10	"sympathiek"	1	1
"1283"	11	"v"	3	1	2	2	0	216	0	5	5	1	526	1	"humeurig"	1	1
"1284"	11	"v"	4	1	2	2	7	216	1	6	6	1	735	7	"liefhebbend"	1	1
"1285"	11	"v"	5	1	2	2	5	216	1	6	6	1	593	6	"vriendelijk"	1	1
"1286"	11	"v"	6	1	2	1	6	216	1	6	6	1	544	1	"aangenaam"	1	1
"1287"	11	"v"	7	1	2	2	1	216	1	6	6	1	497	1	"lief"	1	1
"1288"	11	"v"	8	1	2	1	4	216	1	6	6	1	447	1	"liefhebbend"	1	1
"1289"	11	"v"	9	1	2	2	5	216	1	6	6	1	491	1	"aangenaam"	1	1
"1290"	11	"v"	10	1	2	1	6	216	1	6	6	1	454	6	"aangenaam"	1	1
"1291"	11	"v"	11	1	2	1	6	216	1	6	6	1	421	1	"mooi"	1	1
"1292"	11	"v"	12	1	2	1	2	216	1	6	6	1	377	1	"mooi"	1	1
"1293"	11	"v"	13	1	2	2	5	216	1	6	6	1	485	1	"mooi"	1	1
"1294"	11	"v"	14	1	2	1	3	216	0	5	5	1	574	1	"onaardig"	1	1
"1295"	11	"v"	15	1	2	1	4	216	0	5	5	1	509	8	"humeurig"	1	1
"1296"	11	"v"	16	1	2	2	0	216	0	5	5	1	484	6	"stug"	1	1
"1297"	11	"v"	17	1	2	1	4	216	0	5	5	1	475	1	"irritant"	1	1
"1298"	11	"v"	18	1	2	1	4	216	1	6	6	1	438	7	"vriendelijk"	1	1
"1299"	11	"v"	19	1	2	2	7	216	0	5	5	1	489	1	"stug"	1	1
"1300"	11	"v"	20	1	2	2	5	216	0	5	5	1	555	6	"onsympathiek"	1	1
"1301"	11	"v"	21	1	2	1	2	216	1	6	6	1	522	7	"sympathiek"	1	1
"1302"	11	"v"	22	1	2	2	5	216	1	6	6	1	402	7	"mooi"	1	1
"1303"	11	"v"	23	1	2	1	3	216	1	6	6	1	452	7	"liefhebbend"	1	1
"1304"	11	"v"	24	1	2	2	5	216	0	5	5	1	441	6	"irritant"	1	1
"1305"	11	"v"	25	1	2	1	4	216	0	5	5	1	480	1	"irritant"	1	1
"1307"	11	"v"	27	1	2	2	1	216	0	5	5	1	464	9	"onsympathiek"	1	1
"1308"	11	"v"	28	1	2	1	3	216	1	6	6	1	694	1	"sympathiek"	1	1
"1309"	11	"v"	29	1	2	2	0	216	0	5	5	1	410	7	"irritant"	1	1
"1310"	11	"v"	30	1	2	2	7	216	1	6	6	1	516	1	"sympathiek"	1	1
"1311"	11	"v"	31	1	2	1	2	216	0	5	5	1	501	7	"humeurig"	1	1
"1312"	11	"v"	32	1	2	2	0	216	1	6	6	1	442	7	"mooi"	1	1
"1313"	11	"v"	33	2	2	1	4	216	1	6	6	1	727	1	"lief"	1	1
"1314"	11	"v"	34	2	2	1	2	216	1	6	6	1	423	7	"lief"	1	1
"1315"	11	"v"	35	2	2	1	6	216	1	6	6	1	536	1	"aangenaam"	1	1
"1316"	11	"v"	36	2	2	2	7	216	1	6	6	1	393	1	"mooi"	1	1
"1317"	11	"v"	37	2	2	1	4	216	1	6	6	1	428	7	"liefhebbend"	1	1
"1318"	11	"v"	38	2	2	1	4	216	0	5	5	1	413	7	"onsympathiek"	1	1
"1319"	11	"v"	39	2	2	2	0	216	0	5	5	1	506	1	"onvriendelijk"	1	1
"1320"	11	"v"	40	2	2	2	5	216	0	5	5	1	486	1	"onsympathiek"	1	1
"1321"	11	"v"	41	2	2	1	2	216	0	5	5	1	516	6	"humeurig"	1	1
"1322"	11	"v"	42	2	2	1	3	216	1	6	6	1	510	1	"aangenaam"	1	1
"1323"	11	"v"	43	2	2	2	1	216	1	6	6	1	554	7	"sympathiek"	1	1
"1324"	11	"v"	44	2	2	2	7	216	1	6	6	1	454	1	"mooi"	1	1
"1325"	11	"v"	45	2	2	2	1	216	0	5	5	1	540	7	"onsympathiek"	1	1
"1326"	11	"v"	46	2	2	2	1	216	0	5	5	1	547	1	"humeurig"	1	1
"1327"	11	"v"	47	2	2	1	2	216	0	5	5	1	480	9	"humeurig"	1	1
"1328"	11	"v"	48	2	2	2	1	216	0	5	5	1	391	7	"humeurig"	1	1
"1329"	11	"v"	49	2	2	1	3	216	0	5	5	1	554	7	"onsympathiek"	1	1
"1330"	11	"v"	50	2	2	2	7	216	1	6	6	1	419	1	"aangenaam"	1	1
"1332"	11	"v"	52	2	2	2	7	216	0	5	5	1	451	8	"humeurig"	1	1
"1333"	11	"v"	53	2	2	2	1	216	1	6	6	1	555	7	"mooi"	1	1
"1334"	11	"v"	54	2	2	2	0	216	0	5	5	1	599	1	"irritant"	1	1
"1335"	11	"v"	55	2	2	2	0	216	1	6	6	1	553	7	"aangenaam"	1	1
"1336"	11	"v"	56	2	2	2	0	216	1	6	6	1	490	1	"mooi"	1	1
"1337"	11	"v"	57	2	2	2	0	216	0	5	5	1	580	1	"irritant"	1	1
"1338"	11	"v"	58	2	2	2	7	216	0	5	5	1	511	1	"stug"	1	1
"1339"	11	"v"	59	2	2	1	4	216	0	5	5	1	571	1	"humeurig"	1	1
"1340"	11	"v"	60	2	2	1	6	216	1	6	6	1	495	1	"mooi"	1	1
"1341"	11	"v"	61	2	2	1	3	216	1	6	6	1	495	1	"lief"	1	1
"1342"	11	"v"	62	2	2	2	0	216	1	6	6	1	561	7	"aangenaam"	1	1
"1343"	11	"v"	63	2	2	1	2	216	0	5	5	1	543	6	"onsympathiek"	1	1
"1344"	11	"v"	64	2	2	1	3	216	0	5	5	1	499	7	"onaardig"	1	1
"1345"	11	"v"	65	3	2	1	6	216	0	5	5	1	483	6	"stug"	1	1
"1346"	11	"v"	66	3	2	1	2	216	1	6	6	1	474	7	"liefhebbend"	1	1
"1347"	11	"v"	67	3	2	2	5	216	0	5	5	1	461	6	"onsympathiek"	1	1
"1348"	11	"v"	68	3	2	1	4	216	0	5	5	1	421	7	"onvriendelijk"	1	1
"1349"	11	"v"	69	3	2	1	2	216	1	6	6	1	446	6	"liefhebbend"	1	1
"1350"	11	"v"	70	3	2	1	2	216	0	5	5	1	506	6	"onvriendelijk"	1	1
"1351"	11	"v"	71	3	2	2	5	216	0	5	5	1	405	1	"onsympathiek"	1	1
"1352"	11	"v"	72	3	2	1	3	216	0	5	5	1	457	7	"onvriendelijk"	1	1
"1353"	11	"v"	73	3	2	1	4	216	1	6	6	1	419	1	"mooi"	1	1
"1354"	11	"v"	74	3	2	2	0	216	1	6	6	1	654	9	"lief"	1	1
"1355"	11	"v"	75	3	2	1	3	216	1	6	6	1	530	6	"liefhebbend"	1	1
"1356"	11	"v"	76	3	2	1	6	216	1	6	6	1	439	1	"liefhebbend"	1	1
"1357"	11	"v"	77	3	2	2	5	216	0	5	5	1	525	1	"irritant"	1	1
"1358"	11	"v"	78	3	2	1	4	216	1	6	6	1	639	7	"lief"	1	1
"1359"	11	"v"	79	3	2	2	1	216	0	5	5	1	491	1	"onsympathiek"	1	1
"1360"	11	"v"	80	3	2	2	5	216	1	6	6	1	493	7	"lief"	1	1
"1361"	11	"v"	81	3	2	2	5	216	1	6	6	1	470	1	"sympathiek"	1	1
"1362"	11	"v"	82	3	2	2	7	216	0	5	5	1	551	8	"irritant"	1	1
"1363"	11	"v"	83	3	2	1	6	216	0	5	5	1	472	6	"irritant"	1	1
"1364"	11	"v"	84	3	2	1	2	216	1	6	6	1	485	10	"aangenaam"	1	1
"1365"	11	"v"	85	3	2	2	7	216	0	5	5	1	482	7	"onsympathiek"	1	1
"1366"	11	"v"	86	3	2	2	0	216	1	6	6	1	484	2	"aangenaam"	1	1
"1368"	11	"v"	88	3	2	1	6	216	0	5	5	1	547	6	"irritant"	1	1
"1370"	11	"v"	90	3	2	2	1	216	1	6	6	1	547	7	"vriendelijk"	1	1
"1371"	11	"v"	91	3	2	1	2	216	0	5	5	1	625	10	"onsympathiek"	1	1
"1372"	11	"v"	92	3	2	1	3	216	0	5	5	1	462	7	"irritant"	1	1
"1374"	11	"v"	94	3	2	2	5	216	0	5	5	1	542	1	"stug"	1	1
"1376"	11	"v"	96	3	2	2	1	216	1	6	6	1	353	7	"mooi"	1	1
"1377"	11	"v"	97	4	2	1	3	216	1	6	6	1	424	7	"lief"	1	1
"1378"	11	"v"	98	4	2	1	2	216	1	6	6	1	540	1	"sympathiek"	1	1
"1379"	11	"v"	99	4	2	2	1	216	1	6	6	1	364	1	"aangenaam"	1	1
"1380"	11	"v"	100	4	2	1	2	216	0	5	5	1	527	1	"onaardig"	1	1
"1381"	11	"v"	101	4	2	2	5	216	1	6	6	1	413	6	"vriendelijk"	1	1
"1382"	11	"v"	102	4	2	1	6	216	0	5	5	1	543	1	"onaardig"	1	1
"1383"	11	"v"	103	4	2	2	7	216	1	6	6	1	485	1	"liefhebbend"	1	1
"1384"	11	"v"	104	4	2	1	2	216	0	5	5	1	452	7	"irritant"	1	1
"1385"	11	"v"	105	4	2	1	4	216	1	6	6	1	526	1	"aangenaam"	1	1
"1387"	11	"v"	107	4	2	2	1	216	0	5	5	1	472	1	"onsympathiek"	1	1
"1388"	11	"v"	108	4	2	2	0	216	1	6	6	1	418	7	"mooi"	1	1
"1389"	11	"v"	109	4	2	2	0	216	0	5	5	1	517	7	"humeurig"	1	1
"1390"	11	"v"	110	4	2	1	3	216	1	6	6	1	429	9	"vriendelijk"	1	1
"1391"	11	"v"	111	4	2	2	7	216	0	5	5	1	518	1	"irritant"	1	1
"1392"	11	"v"	112	4	2	1	3	216	1	6	6	1	546	1	"liefhebbend"	1	1
"1393"	11	"v"	113	4	2	1	6	216	0	5	5	1	457	7	"stug"	1	1
"1394"	11	"v"	114	4	2	2	0	216	0	5	5	1	524	1	"humeurig"	1	1
"1395"	11	"v"	115	4	2	2	5	216	0	5	5	1	379	1	"humeurig"	1	1
"1396"	11	"v"	116	4	2	1	6	216	0	5	5	1	400	1	"onaardig"	1	1
"1398"	11	"v"	118	4	2	1	4	216	0	5	5	1	625	1	"onaardig"	1	1
"1399"	11	"v"	119	4	2	1	2	216	1	6	6	1	448	7	"lief"	1	1
"1400"	11	"v"	120	4	2	1	3	216	0	5	5	1	485	10	"irritant"	1	1
"1401"	11	"v"	121	4	2	1	4	216	1	6	6	1	555	7	"liefhebbend"	1	1
"1402"	11	"v"	122	4	2	2	7	216	1	6	6	1	433	10	"mooi"	1	1
"1403"	11	"v"	123	4	2	2	5	216	1	6	6	1	429	1	"mooi"	1	1
"1404"	11	"v"	124	4	2	1	6	216	1	6	6	1	562	7	"lief"	1	1
"1405"	11	"v"	125	4	2	2	1	216	0	5	5	1	530	7	"irritant"	1	1
"1406"	11	"v"	126	4	2	1	6	216	0	5	5	1	487	6	"onaardig"	1	1
"1407"	11	"v"	127	4	2	1	6	216	0	5	5	1	394	6	"onvriendelijk"	1	1
"1408"	11	"v"	128	4	2	2	7	216	0	5	5	1	414	7	"onsympathiek"	1	1
"1409"	12	"v"	1	1	1	1	4	216	0	6	6	1	512	1	"onsympathiek"	1	1
"1410"	12	"v"	2	1	1	1	2	216	1	5	5	1	487	1	"sympathiek"	0	2
"1412"	12	"v"	4	1	1	1	3	216	0	6	6	1	503	1	"onaardig"	1	1
"1414"	12	"v"	6	1	1	1	3	216	1	5	5	1	371	1	"sympathiek"	1	1
"1415"	12	"v"	7	1	1	2	5	216	1	5	5	1	437	7	"liefhebbend"	0	2
"1416"	12	"v"	8	1	1	2	5	216	0	6	6	1	588	1	"stug"	0	2
"1417"	12	"v"	9	1	1	2	0	216	0	6	6	1	442	1	"onvriendelijk"	1	1
"1420"	12	"v"	12	1	1	2	7	216	0	6	6	1	400	7	"onaardig"	1	1
"1421"	12	"v"	13	1	1	1	6	216	1	5	5	1	520	1	"vriendelijk"	1	1
"1422"	12	"v"	14	1	1	1	2	216	0	6	6	1	417	1	"onaardig"	0	2
"1423"	12	"v"	15	1	1	1	2	216	0	6	6	1	445	7	"onaardig"	0	2
"1424"	12	"v"	16	1	1	2	5	216	1	5	5	1	465	10	"sympathiek"	0	2
"1425"	12	"v"	17	1	1	2	1	216	0	6	6	1	533	6	"irritant"	1	1
"1426"	12	"v"	18	1	1	1	6	216	0	6	6	1	455	7	"irritant"	1	1
"1427"	12	"v"	19	1	1	1	4	216	1	5	5	1	404	7	"mooi"	1	1
"1428"	12	"v"	20	1	1	2	1	216	1	5	5	1	396	6	"mooi"	1	1
"1429"	12	"v"	21	1	1	2	7	216	0	6	6	1	423	6	"stug"	1	1
"1430"	12	"v"	22	1	1	1	3	216	0	6	6	1	344	7	"irritant"	1	1
"1431"	12	"v"	23	1	1	2	7	216	0	6	6	1	543	1	"onaardig"	1	1
"1432"	12	"v"	24	1	1	1	6	216	0	6	6	1	427	1	"onvriendelijk"	1	1
"1433"	12	"v"	25	1	1	1	4	216	0	6	6	1	358	1	"onsympathiek"	1	1
"1434"	12	"v"	26	1	1	2	0	216	1	5	5	1	443	6	"aangenaam"	1	1
"1435"	12	"v"	27	1	1	2	1	216	0	6	6	1	428	1	"onvriendelijk"	1	1
"1438"	12	"v"	30	1	1	1	2	216	1	5	5	1	425	1	"sympathiek"	0	2
"1439"	12	"v"	31	1	1	1	3	216	1	5	5	1	318	9	"vriendelijk"	1	1
"1440"	12	"v"	32	1	1	2	5	216	1	5	5	1	392	7	"sympathiek"	0	2
"1441"	12	"v"	33	2	1	1	2	216	0	6	6	1	615	1	"humeurig"	0	2
"1443"	12	"v"	35	2	1	1	6	216	1	5	5	1	408	7	"mooi"	1	1
"1444"	12	"v"	36	2	1	1	3	216	1	5	5	1	483	1	"aangenaam"	1	1
"1445"	12	"v"	37	2	1	2	1	216	1	5	5	1	387	1	"aangenaam"	1	1
"1446"	12	"v"	38	2	1	2	7	216	0	6	6	1	444	6	"onsympathiek"	1	1
"1447"	12	"v"	39	2	1	2	1	216	1	5	5	1	418	1	"lief"	1	1
"1448"	12	"v"	40	2	1	2	7	216	1	5	5	1	377	6	"liefhebbend"	1	1
"1449"	12	"v"	41	2	1	1	4	216	0	6	6	1	460	7	"stug"	1	1
"1450"	12	"v"	42	2	1	2	0	216	0	6	6	1	458	1	"onaardig"	1	1
"1451"	12	"v"	43	2	1	2	0	216	1	5	5	1	374	1	"mooi"	1	1
"1452"	12	"v"	44	2	1	1	4	216	0	6	6	1	468	1	"irritant"	1	1
"1453"	12	"v"	45	2	1	1	4	216	1	5	5	1	414	6	"aangenaam"	1	1
"1454"	12	"v"	46	2	1	2	1	216	1	5	5	1	432	1	"mooi"	1	1
"1455"	12	"v"	47	2	1	2	7	216	0	6	6	1	439	7	"stug"	1	1
"1456"	12	"v"	48	2	1	1	3	216	0	6	6	1	587	7	"humeurig"	1	1
"1457"	12	"v"	49	2	1	1	3	216	0	6	6	1	473	7	"humeurig"	1	1
"1458"	12	"v"	50	2	1	1	4	216	0	6	6	1	522	8	"onsympathiek"	1	1
"1459"	12	"v"	51	2	1	2	7	216	0	6	6	1	408	1	"irritant"	1	1
"1460"	12	"v"	52	2	1	2	5	216	0	6	6	1	349	7	"irritant"	0	2
"1461"	12	"v"	53	2	1	1	2	216	0	6	6	1	419	7	"onvriendelijk"	0	2
"1462"	12	"v"	54	2	1	1	4	216	1	5	5	1	428	7	"mooi"	1	1
"1463"	12	"v"	55	2	1	1	2	216	0	6	6	1	450	7	"onvriendelijk"	0	2
"1464"	12	"v"	56	2	1	2	7	216	1	5	5	1	483	1	"sympathiek"	1	1
"1465"	12	"v"	57	2	1	1	3	216	1	5	5	1	357	7	"mooi"	1	1
"1466"	12	"v"	58	2	1	1	2	216	1	5	5	1	438	6	"sympathiek"	0	2
"1467"	12	"v"	59	2	1	1	6	216	1	5	5	1	447	6	"liefhebbend"	1	1
"1468"	12	"v"	60	2	1	1	4	216	1	5	5	1	340	1	"mooi"	1	1
"1469"	12	"v"	61	2	1	2	5	216	1	5	5	1	370	1	"liefhebbend"	0	2
"1470"	12	"v"	62	2	1	1	2	216	1	5	5	1	353	8	"liefhebbend"	0	2
"1471"	12	"v"	63	2	1	2	1	216	0	6	6	1	459	7	"onsympathiek"	1	1
"1472"	12	"v"	64	2	1	1	6	216	0	6	6	1	359	1	"onvriendelijk"	1	1
"1473"	12	"v"	65	3	1	2	0	216	1	5	5	1	539	1	"aangenaam"	1	1
"1474"	12	"v"	66	3	1	2	0	216	1	5	5	1	396	7	"mooi"	1	1
"1475"	12	"v"	67	3	1	1	2	216	0	6	6	1	518	7	"onvriendelijk"	0	2
"1476"	12	"v"	68	3	1	2	5	216	1	5	5	1	396	7	"aangenaam"	0	2
"1477"	12	"v"	69	3	1	2	1	216	1	5	5	1	431	1	"mooi"	1	1
"1478"	12	"v"	70	3	1	2	5	216	0	6	6	1	374	1	"irritant"	0	2
"1479"	12	"v"	71	3	1	1	6	216	1	5	5	1	447	1	"liefhebbend"	1	1
"1480"	12	"v"	72	3	1	2	7	216	1	5	5	1	383	1	"aangenaam"	1	1
"1481"	12	"v"	73	3	1	1	2	216	1	5	5	1	399	1	"lief"	0	2
"1482"	12	"v"	74	3	1	2	1	216	0	6	6	1	408	6	"onvriendelijk"	1	1
"1483"	12	"v"	75	3	1	2	1	216	1	5	5	1	394	6	"lief"	1	1
"1484"	12	"v"	76	3	1	1	2	216	0	6	6	1	523	7	"onsympathiek"	0	2
"1485"	12	"v"	77	3	1	1	6	216	0	6	6	1	587	6	"onaardig"	1	1
"1487"	12	"v"	79	3	1	2	5	216	0	6	6	1	371	1	"stug"	0	2
"1488"	12	"v"	80	3	1	1	6	216	1	5	5	1	426	7	"lief"	1	1
"1489"	12	"v"	81	3	1	2	7	216	0	6	6	1	427	7	"stug"	1	1
"1490"	12	"v"	82	3	1	2	0	216	1	5	5	1	508	1	"lief"	1	1
"1491"	12	"v"	83	3	1	2	7	216	1	5	5	1	378	1	"lief"	1	1
"1492"	12	"v"	84	3	1	1	3	216	1	5	5	1	486	7	"vriendelijk"	1	1
"1493"	12	"v"	85	3	1	2	0	216	1	5	5	1	387	1	"liefhebbend"	1	1
"1494"	12	"v"	86	3	1	1	3	216	0	6	6	1	420	6	"irritant"	1	1
"1495"	12	"v"	87	3	1	2	1	216	1	5	5	1	535	6	"aangenaam"	1	1
"1496"	12	"v"	88	3	1	2	5	216	0	6	6	1	512	6	"humeurig"	0	2
"1497"	12	"v"	89	3	1	1	6	216	0	6	6	1	429	1	"humeurig"	1	1
"1498"	12	"v"	90	3	1	2	7	216	0	6	6	1	368	7	"onaardig"	1	1
"1499"	12	"v"	91	3	1	1	2	216	1	5	5	1	408	1	"sympathiek"	0	2
"1500"	12	"v"	92	3	1	2	1	216	0	6	6	1	460	7	"irritant"	1	1
"1503"	12	"v"	95	3	1	2	7	216	1	5	5	1	412	1	"lief"	1	1
"1504"	12	"v"	96	3	1	1	4	216	1	5	5	1	372	7	"vriendelijk"	1	1
"1505"	12	"v"	97	4	1	2	1	216	0	6	6	1	448	7	"onsympathiek"	1	1
"1506"	12	"v"	98	4	1	1	6	216	1	5	5	1	484	7	"sympathiek"	1	1
"1507"	12	"v"	99	4	1	2	0	216	1	5	5	1	498	1	"vriendelijk"	1	1
"1508"	12	"v"	100	4	1	2	0	216	0	6	6	1	388	1	"onaardig"	1	1
"1509"	12	"v"	101	4	1	2	5	216	1	5	5	1	446	7	"aangenaam"	0	2
"1510"	12	"v"	102	4	1	1	3	216	0	6	6	1	585	1	"humeurig"	1	1
"1511"	12	"v"	103	4	1	2	5	216	0	6	6	1	423	6	"onaardig"	0	2
"1512"	12	"v"	104	4	1	2	5	216	0	6	6	1	387	21	"irritant"	0	2
"1513"	12	"v"	105	4	1	1	6	216	1	5	5	1	456	1	"aangenaam"	1	1
"1514"	12	"v"	106	4	1	2	1	216	1	5	5	1	422	7	"vriendelijk"	1	1
"1515"	12	"v"	107	4	1	2	0	216	0	6	6	1	435	1	"irritant"	1	1
"1516"	12	"v"	108	4	1	2	7	216	1	5	5	1	431	8	"liefhebbend"	1	1
"1518"	12	"v"	110	4	1	1	2	216	0	6	6	1	466	6	"onaardig"	0	2
"1519"	12	"v"	111	4	1	1	2	216	1	5	5	1	428	1	"vriendelijk"	0	2
"1520"	12	"v"	112	4	1	1	3	216	0	6	6	1	415	7	"onsympathiek"	1	1
"1521"	12	"v"	113	4	1	2	1	216	0	6	6	1	518	7	"humeurig"	1	1
"1522"	12	"v"	114	4	1	2	0	216	0	6	6	1	402	1	"irritant"	1	1
"1523"	12	"v"	115	4	1	1	6	216	0	6	6	1	385	6	"onsympathiek"	1	1
"1524"	12	"v"	116	4	1	1	4	216	1	5	5	1	528	1	"lief"	1	1
"1525"	12	"v"	117	4	1	1	3	216	0	6	6	1	402	1	"onsympathiek"	1	1
"1526"	12	"v"	118	4	1	2	7	216	1	5	5	1	357	1	"lief"	1	1
"1528"	12	"v"	120	4	1	2	0	216	0	6	6	1	500	1	"stug"	1	1
"1529"	12	"v"	121	4	1	1	6	216	0	6	6	1	467	1	"onvriendelijk"	1	1
"1530"	12	"v"	122	4	1	2	5	216	1	5	5	1	424	1	"aangenaam"	0	2
"1531"	12	"v"	123	4	1	1	4	216	0	6	6	1	616	7	"humeurig"	1	1
"1532"	12	"v"	124	4	1	1	4	216	0	6	6	1	406	6	"irritant"	1	1
"1533"	12	"v"	125	4	1	2	0	216	0	6	6	1	450	7	"onaardig"	1	1
"1534"	12	"v"	126	4	1	2	5	216	0	6	6	1	372	7	"onaardig"	0	2
"1535"	12	"v"	127	4	1	2	0	216	1	5	5	1	553	7	"mooi"	1	1
"1538"	13	"v"	2	1	1	2	2	216	0	6	6	1	690	1	"humeurig"	1	1
"1539"	13	"v"	3	1	1	1	4	216	1	5	5	1	587	1	"vriendelijk"	0	3
"1540"	13	"v"	4	1	1	1	6	216	0	6	6	1	507	7	"onvriendelijk"	0	3
"1541"	13	"v"	5	1	1	1	3	216	0	6	6	1	646	7	"humeurig"	1	1
"1542"	13	"v"	6	1	1	1	4	216	0	6	6	1	609	1	"stug"	0	3
"1543"	13	"v"	7	1	1	1	4	216	0	6	6	1	594	1	"onaardig"	0	3
"1544"	13	"v"	8	1	1	2	7	216	0	6	6	1	595	9	"onvriendelijk"	1	1
"1545"	13	"v"	9	1	1	1	1	216	1	5	5	1	498	7	"vriendelijk"	1	1
"1546"	13	"v"	10	1	1	2	0	216	0	6	6	1	640	1	"onvriendelijk"	0	3
"1547"	13	"v"	11	1	1	1	6	216	1	5	5	1	521	1	"sympathiek"	0	3
"1548"	13	"v"	12	1	1	1	3	216	0	6	6	1	577	1	"onsympathiek"	1	1
"1549"	13	"v"	13	1	1	2	5	216	0	6	6	1	550	7	"humeurig"	1	1
"1550"	13	"v"	14	1	1	1	3	216	1	5	5	1	580	1	"mooi"	1	1
"1551"	13	"v"	15	1	1	2	2	216	1	5	5	1	577	1	"aangenaam"	1	1
"1552"	13	"v"	16	1	1	1	6	216	0	6	6	1	441	7	"onsympathiek"	0	3
"1554"	13	"v"	18	1	1	1	4	216	0	6	6	1	535	9	"humeurig"	0	3
"1555"	13	"v"	19	1	1	1	6	216	0	6	6	1	553	6	"onaardig"	0	3
"1556"	13	"v"	20	1	1	2	0	216	1	5	5	1	618	1	"mooi"	0	3
"1557"	13	"v"	21	1	1	2	0	216	0	6	6	1	532	8	"onsympathiek"	0	3
"1558"	13	"v"	22	1	1	1	1	216	1	5	5	1	695	1	"liefhebbend"	1	1
"1559"	13	"v"	23	1	1	1	3	216	1	5	5	1	619	7	"liefhebbend"	1	1
"1560"	13	"v"	24	1	1	1	3	216	0	6	6	1	578	6	"irritant"	1	1
"1561"	13	"v"	25	1	1	1	3	216	1	5	5	1	636	7	"liefhebbend"	1	1
"1562"	13	"v"	26	1	1	1	1	216	0	6	6	1	559	7	"onaardig"	1	1
"1563"	13	"v"	27	1	1	2	2	216	0	6	6	1	587	1	"onaardig"	1	1
"1564"	13	"v"	28	1	1	2	5	216	1	5	5	1	547	8	"mooi"	1	1
"1565"	13	"v"	29	1	1	1	4	216	0	6	6	1	468	1	"onsympathiek"	0	3
"1566"	13	"v"	30	1	1	1	6	216	1	5	5	1	735	7	"sympathiek"	0	3
"1567"	13	"v"	31	1	1	1	1	216	0	6	6	1	502	6	"onaardig"	1	1
"1568"	13	"v"	32	1	1	2	7	216	1	5	5	1	688	1	"vriendelijk"	1	1
"1569"	13	"v"	33	2	1	1	6	216	1	5	5	1	444	7	"vriendelijk"	0	3
"1570"	13	"v"	34	2	1	2	0	216	1	5	5	1	617	1	"liefhebbend"	0	3
"1571"	13	"v"	35	2	1	1	3	216	0	6	6	1	499	1	"humeurig"	1	1
"1572"	13	"v"	36	2	1	1	3	216	0	6	6	1	506	7	"irritant"	1	1
"1573"	13	"v"	37	2	1	2	5	216	1	5	5	1	553	1	"mooi"	1	1
"1574"	13	"v"	38	2	1	1	3	216	0	6	6	1	499	7	"stug"	1	1
"1575"	13	"v"	39	2	1	2	2	216	0	6	6	1	484	7	"onvriendelijk"	1	1
"1576"	13	"v"	40	2	1	2	0	216	1	5	5	1	471	7	"liefhebbend"	0	3
"1577"	13	"v"	41	2	1	2	2	216	1	5	5	1	561	7	"aangenaam"	1	1
"1578"	13	"v"	42	2	1	2	0	216	0	6	6	1	498	1	"onvriendelijk"	0	3
"1579"	13	"v"	43	2	1	1	3	216	0	6	6	1	500	7	"onvriendelijk"	1	1
"1580"	13	"v"	44	2	1	2	7	216	0	6	6	1	520	1	"humeurig"	1	1
"1581"	13	"v"	45	2	1	1	6	216	1	5	5	1	634	1	"liefhebbend"	0	3
"1582"	13	"v"	46	2	1	1	1	216	0	6	6	1	538	1	"irritant"	1	1
"1583"	13	"v"	47	2	1	1	1	216	0	6	6	1	556	1	"onsympathiek"	1	1
"1584"	13	"v"	48	2	1	1	1	216	0	6	6	1	503	1	"onvriendelijk"	1	1
"1585"	13	"v"	49	2	1	2	0	216	1	5	5	1	516	7	"sympathiek"	0	3
"1586"	13	"v"	50	2	1	2	2	216	1	5	5	1	512	1	"sympathiek"	1	1
"1587"	13	"v"	51	2	1	1	6	216	0	6	6	1	428	7	"onvriendelijk"	0	3
"1588"	13	"v"	52	2	1	2	2	216	1	5	5	1	560	1	"liefhebbend"	1	1
"1589"	13	"v"	53	2	1	2	5	216	0	6	6	1	436	7	"stug"	1	1
"1590"	13	"v"	54	2	1	1	4	216	1	5	5	1	546	6	"sympathiek"	0	3
"1591"	13	"v"	55	2	1	1	6	216	0	6	6	1	417	1	"onvriendelijk"	0	3
"1592"	13	"v"	56	2	1	1	4	216	1	5	5	1	516	7	"vriendelijk"	0	3
"1593"	13	"v"	57	2	1	2	0	216	0	6	6	1	523	7	"humeurig"	0	3
"1594"	13	"v"	58	2	1	2	5	216	1	5	5	1	479	1	"liefhebbend"	1	1
"1595"	13	"v"	59	2	1	2	0	216	0	6	6	1	563	1	"humeurig"	0	3
"1596"	13	"v"	60	2	1	2	2	216	0	6	6	1	656	7	"onaardig"	1	1
"1597"	13	"v"	61	2	1	2	7	216	0	6	6	1	525	1	"onvriendelijk"	1	1
"1599"	13	"v"	63	2	1	2	2	216	0	6	6	1	483	1	"irritant"	1	1
"1600"	13	"v"	64	2	1	2	2	216	1	5	5	1	519	1	"lief"	1	1
"1601"	13	"v"	65	3	1	1	4	216	0	6	6	1	458	1	"onaardig"	0	3
"1602"	13	"v"	66	3	1	1	3	216	1	5	5	1	579	6	"vriendelijk"	1	1
"1603"	13	"v"	67	3	1	1	3	216	0	6	6	1	422	1	"irritant"	1	1
"1604"	13	"v"	68	3	1	2	5	216	0	6	6	1	395	7	"humeurig"	1	1
"1605"	13	"v"	69	3	1	2	5	216	0	6	6	1	515	1	"onaardig"	1	1
"1606"	13	"v"	70	3	1	2	7	216	0	6	6	1	475	7	"onvriendelijk"	1	1
"1607"	13	"v"	71	3	1	2	7	216	1	5	5	1	542	7	"liefhebbend"	1	1
"1608"	13	"v"	72	3	1	2	0	216	1	5	5	1	442	7	"vriendelijk"	0	3
"1609"	13	"v"	73	3	1	2	2	216	0	6	6	1	415	1	"onsympathiek"	1	1
"1610"	13	"v"	74	3	1	2	5	216	1	5	5	1	545	1	"lief"	1	1
"1611"	13	"v"	75	3	1	1	1	216	0	6	6	1	496	1	"onaardig"	1	1
"1613"	13	"v"	77	3	1	1	6	216	1	5	5	1	583	1	"mooi"	0	3
"1614"	13	"v"	78	3	1	1	3	216	1	5	5	1	549	7	"mooi"	1	1
"1615"	13	"v"	79	3	1	2	2	216	1	5	5	1	498	1	"vriendelijk"	1	1
"1616"	13	"v"	80	3	1	2	7	216	1	5	5	1	455	7	"sympathiek"	1	1
"1618"	13	"v"	82	3	1	1	1	216	1	5	5	1	555	7	"vriendelijk"	1	1
"1619"	13	"v"	83	3	1	2	5	216	1	5	5	1	620	6	"aangenaam"	1	1
"1620"	13	"v"	84	3	1	1	1	216	0	6	6	1	499	7	"onaardig"	1	1
"1621"	13	"v"	85	3	1	2	5	216	1	5	5	1	515	1	"lief"	1	1
"1622"	13	"v"	86	3	1	2	2	216	1	5	5	1	502	8	"aangenaam"	1	1
"1623"	13	"v"	87	3	1	2	5	216	1	5	5	1	514	1	"vriendelijk"	1	1
"1624"	13	"v"	88	3	1	2	0	216	1	5	5	1	566	1	"lief"	0	3
"1625"	13	"v"	89	3	1	2	7	216	0	6	6	1	565	8	"stug"	1	1
"1626"	13	"v"	90	3	1	2	7	216	1	5	5	1	482	1	"mooi"	1	1
"1627"	13	"v"	91	3	1	2	7	216	1	5	5	1	556	6	"sympathiek"	1	1
"1628"	13	"v"	92	3	1	1	1	216	1	5	5	1	500	10	"sympathiek"	1	1
"1629"	13	"v"	93	3	1	2	5	216	1	5	5	1	445	1	"mooi"	1	1
"1630"	13	"v"	94	3	1	2	7	216	0	6	6	1	487	7	"stug"	1	1
"1631"	13	"v"	95	3	1	2	5	216	0	6	6	1	592	1	"onsympathiek"	1	1
"1632"	13	"v"	96	3	1	2	0	216	0	6	6	1	555	1	"humeurig"	0	3
"1633"	13	"v"	97	4	1	1	4	216	1	5	5	1	558	7	"liefhebbend"	0	3
"1634"	13	"v"	98	4	1	1	6	216	0	6	6	1	510	1	"onaardig"	0	3
"1635"	13	"v"	99	4	1	1	3	216	1	5	5	1	558	1	"mooi"	1	1
"1636"	13	"v"	100	4	1	2	5	216	0	6	6	1	731	1	"onvriendelijk"	1	1
"1637"	13	"v"	101	4	1	2	0	216	0	6	6	1	553	6	"humeurig"	0	3
"1638"	13	"v"	102	4	1	1	1	216	1	5	5	1	569	1	"sympathiek"	1	1
"1639"	13	"v"	103	4	1	1	3	216	1	5	5	1	509	1	"liefhebbend"	1	1
"1640"	13	"v"	104	4	1	2	7	216	0	6	6	1	521	1	"onvriendelijk"	1	1
"1641"	13	"v"	105	4	1	1	4	216	0	6	6	1	569	7	"humeurig"	0	3
"1642"	13	"v"	106	4	1	2	7	216	1	5	5	1	582	7	"liefhebbend"	1	1
"1643"	13	"v"	107	4	1	1	4	216	1	5	5	1	621	7	"aangenaam"	0	3
"1644"	13	"v"	108	4	1	2	7	216	1	5	5	1	503	1	"vriendelijk"	1	1
"1645"	13	"v"	109	4	1	2	2	216	0	6	6	1	578	1	"onvriendelijk"	1	1
"1646"	13	"v"	110	4	1	1	6	216	0	6	6	1	551	7	"stug"	0	3
"1647"	13	"v"	111	4	1	2	0	216	0	6	6	1	479	1	"stug"	0	3
"1648"	13	"v"	112	4	1	1	1	216	0	6	6	1	443	7	"stug"	1	1
"1649"	13	"v"	113	4	1	2	2	216	0	6	6	1	501	1	"onsympathiek"	1	1
"1650"	13	"v"	114	4	1	2	7	216	1	5	5	1	537	7	"aangenaam"	1	1
"1651"	13	"v"	115	4	1	1	1	216	1	5	5	1	469	1	"aangenaam"	1	1
"1652"	13	"v"	116	4	1	2	0	216	1	5	5	1	523	1	"vriendelijk"	0	3
"1653"	13	"v"	117	4	1	1	1	216	1	5	5	1	469	7	"lief"	1	1
"1654"	13	"v"	118	4	1	1	6	216	0	6	6	1	516	1	"irritant"	0	3
"1655"	13	"v"	119	4	1	2	0	216	1	5	5	1	453	7	"aangenaam"	0	3
"1656"	13	"v"	120	4	1	1	4	216	1	5	5	1	424	1	"aangenaam"	0	3
"1657"	13	"v"	121	4	1	2	5	216	0	6	6	1	527	1	"humeurig"	1	1
"1658"	13	"v"	122	4	1	1	4	216	0	6	6	1	598	7	"irritant"	0	3
"1659"	13	"v"	123	4	1	1	3	216	1	5	5	1	507	1	"mooi"	1	1
"1660"	13	"v"	124	4	1	1	1	216	1	5	5	1	596	7	"mooi"	1	1
"1661"	13	"v"	125	4	1	1	4	216	1	5	5	1	509	1	"vriendelijk"	0	3
"1662"	13	"v"	126	4	1	2	2	216	1	5	5	1	592	1	"aangenaam"	1	1
"1663"	13	"v"	127	4	1	1	4	216	1	5	5	1	560	1	"mooi"	0	3
"1664"	13	"v"	128	4	1	1	6	216	1	5	5	1	680	1	"liefhebbend"	0	3
"1665"	14	"v"	1	1	2	2	7	216	1	6	6	1	757	7	"liefhebbend"	1	1
"1666"	14	"v"	2	1	2	2	7	216	1	6	6	1	586	25	"aangenaam"	1	1
"1667"	14	"v"	3	1	2	2	5	216	0	5	5	1	757	1	"onaardig"	1	1
"1668"	14	"v"	4	1	2	2	7	216	1	6	6	1	691	1	"aangenaam"	1	1
"1669"	14	"v"	5	1	2	1	1	216	1	6	6	1	637	7	"mooi"	0	2
"1670"	14	"v"	6	1	2	2	2	216	1	6	6	1	552	9	"liefhebbend"	1	1
"1671"	14	"v"	7	1	2	1	6	216	1	6	6	1	593	7	"vriendelijk"	1	1
"1673"	14	"v"	9	1	2	1	4	216	1	6	6	1	653	9	"lief"	1	1
"1674"	14	"v"	10	1	2	2	0	216	1	6	6	1	596	6	"vriendelijk"	0	2
"1675"	14	"v"	11	1	2	1	3	216	1	6	6	1	316	1	"vriendelijk"	1	1
"1676"	14	"v"	12	1	2	2	2	216	0	5	5	1	636	8	"onvriendelijk"	1	1
"1677"	14	"v"	13	1	2	2	0	216	1	6	6	1	611	1	"lief"	0	2
"1678"	14	"v"	14	1	2	1	4	216	0	5	5	1	532	1	"onvriendelijk"	1	1
"1679"	14	"v"	15	1	2	1	3	216	1	6	6	1	507	1	"aangenaam"	1	1
"1680"	14	"v"	16	1	2	2	7	216	1	6	6	1	593	7	"aangenaam"	1	1
"1681"	14	"v"	17	1	2	2	7	216	1	6	6	1	458	1	"mooi"	1	1
"1682"	14	"v"	18	1	2	2	2	216	1	6	6	1	614	7	"lief"	1	1
"1684"	14	"v"	20	1	2	1	3	216	0	5	5	1	792	1	"onsympathiek"	1	1
"1685"	14	"v"	21	1	2	1	6	216	0	5	5	1	667	7	"irritant"	1	1
"1687"	14	"v"	23	1	2	1	4	216	1	6	6	1	530	6	"liefhebbend"	1	1
"1688"	14	"v"	24	1	2	2	5	216	0	5	5	1	687	1	"onaardig"	1	1
"1689"	14	"v"	25	1	2	2	2	216	1	6	6	1	588	1	"mooi"	1	1
"1691"	14	"v"	27	1	2	2	7	216	1	6	6	1	485	7	"vriendelijk"	1	1
"1692"	14	"v"	28	1	2	1	4	216	0	5	5	1	591	1	"onvriendelijk"	1	1
"1694"	14	"v"	30	1	2	2	0	216	0	5	5	1	636	1	"onvriendelijk"	0	2
"1695"	14	"v"	31	1	2	1	1	216	0	5	5	1	485	1	"onaardig"	0	2
"1696"	14	"v"	32	1	2	2	0	216	1	6	6	1	631	7	"sympathiek"	0	2
"1697"	14	"v"	33	2	2	1	3	216	0	5	5	1	679	7	"stug"	1	1
"1698"	14	"v"	34	2	2	1	1	216	1	6	6	1	516	7	"vriendelijk"	0	2
"1699"	14	"v"	35	2	2	1	6	216	0	5	5	1	673	7	"onsympathiek"	1	1
"1700"	14	"v"	36	2	2	2	2	216	1	6	6	1	504	7	"liefhebbend"	1	1
"1701"	14	"v"	37	2	2	2	0	216	0	5	5	1	634	7	"onsympathiek"	0	2
"1702"	14	"v"	38	2	2	2	2	216	0	5	5	1	597	7	"onaardig"	1	1
"1703"	14	"v"	39	2	2	1	4	216	1	6	6	1	763	7	"aangenaam"	1	1
"1704"	14	"v"	40	2	2	1	4	216	0	5	5	1	749	7	"humeurig"	1	1
"1705"	14	"v"	41	2	2	1	6	216	0	5	5	1	591	6	"humeurig"	1	1
"1706"	14	"v"	42	2	2	1	1	216	1	6	6	1	431	7	"sympathiek"	0	2
"1707"	14	"v"	43	2	2	1	6	216	0	5	5	1	799	8	"irritant"	1	1
"1708"	14	"v"	44	2	2	2	0	216	0	5	5	1	586	7	"onsympathiek"	0	2
"1709"	14	"v"	45	2	2	1	1	216	1	6	6	1	529	7	"liefhebbend"	0	2
"1710"	14	"v"	46	2	2	1	6	216	1	6	6	1	457	7	"vriendelijk"	1	1
"1711"	14	"v"	47	2	2	1	4	216	0	5	5	1	791	1	"irritant"	1	1
"1712"	14	"v"	48	2	2	2	2	216	1	6	6	1	504	1	"sympathiek"	1	1
"1713"	14	"v"	49	2	2	2	2	216	0	5	5	1	461	7	"onsympathiek"	1	1
"1714"	14	"v"	50	2	2	2	2	216	0	5	5	1	588	1	"stug"	1	1
"1715"	14	"v"	51	2	2	2	2	216	0	5	5	1	528	8	"onaardig"	1	1
"1716"	14	"v"	52	2	2	2	2	216	1	6	6	1	511	7	"liefhebbend"	1	1
"1717"	14	"v"	53	2	2	2	2	216	1	6	6	1	405	7	"lief"	1	1
"1718"	14	"v"	54	2	2	1	1	216	0	5	5	1	490	6	"onsympathiek"	0	2
"1719"	14	"v"	55	2	2	2	7	216	0	5	5	1	650	6	"stug"	1	1
"1720"	14	"v"	56	2	2	1	3	216	0	5	5	1	534	7	"onsympathiek"	1	1
"1721"	14	"v"	57	2	2	2	7	216	0	5	5	1	509	7	"onvriendelijk"	1	1
"1722"	14	"v"	58	2	2	1	1	216	1	6	6	1	486	7	"lief"	0	2
"1723"	14	"v"	59	2	2	1	1	216	1	6	6	1	606	1	"liefhebbend"	0	2
"1725"	14	"v"	61	2	2	1	3	216	1	6	6	1	507	1	"liefhebbend"	1	1
"1726"	14	"v"	62	2	2	2	0	216	0	5	5	1	584	7	"onaardig"	0	2
"1727"	14	"v"	63	2	2	1	1	216	1	6	6	1	482	6	"lief"	0	2
"1728"	14	"v"	64	2	2	2	5	216	0	5	5	1	515	1	"stug"	1	1
"1729"	14	"v"	65	3	2	1	4	216	1	6	6	1	579	6	"mooi"	1	1
"1730"	14	"v"	66	3	2	2	7	216	1	6	6	1	492	1	"vriendelijk"	1	1
"1731"	14	"v"	67	3	2	1	3	216	1	6	6	1	476	6	"mooi"	1	1
"1732"	14	"v"	68	3	2	2	5	216	0	5	5	1	542	10	"irritant"	1	1
"1733"	14	"v"	69	3	2	1	4	216	1	6	6	1	505	1	"sympathiek"	1	1
"1734"	14	"v"	70	3	2	2	5	216	1	6	6	1	417	7	"aangenaam"	1	1
"1735"	14	"v"	71	3	2	1	4	216	0	5	5	1	496	1	"stug"	1	1
"1736"	14	"v"	72	3	2	1	1	216	0	5	5	1	619	7	"humeurig"	0	2
"1737"	14	"v"	73	3	2	1	4	216	1	6	6	1	500	1	"liefhebbend"	1	1
"1738"	14	"v"	74	3	2	1	6	216	1	6	6	1	512	1	"vriendelijk"	1	1
"1739"	14	"v"	75	3	2	1	1	216	0	5	5	1	565	1	"onsympathiek"	0	2
"1740"	14	"v"	76	3	2	2	7	216	0	5	5	1	641	7	"irritant"	1	1
"1741"	14	"v"	77	3	2	2	5	216	1	6	6	1	596	7	"mooi"	1	1
"1742"	14	"v"	78	3	2	2	5	216	1	6	6	1	428	1	"liefhebbend"	1	1
"1743"	14	"v"	79	3	2	2	0	216	1	6	6	1	441	1	"vriendelijk"	0	2
"1744"	14	"v"	80	3	2	1	1	216	0	5	5	1	508	1	"stug"	0	2
"1745"	14	"v"	81	3	2	1	4	216	1	6	6	1	488	7	"sympathiek"	1	1
"1746"	14	"v"	82	3	2	1	6	216	1	6	6	1	515	6	"lief"	1	1
"1747"	14	"v"	83	3	2	2	7	216	0	5	5	1	626	1	"onsympathiek"	1	1
"1749"	14	"v"	85	3	2	1	4	216	0	5	5	1	687	7	"humeurig"	1	1
"1750"	14	"v"	86	3	2	1	3	216	0	5	5	1	591	6	"onvriendelijk"	1	1
"1751"	14	"v"	87	3	2	1	6	216	0	5	5	1	587	10	"irritant"	1	1
"1752"	14	"v"	88	3	2	1	3	216	1	6	6	1	613	9	"vriendelijk"	1	1
"1753"	14	"v"	89	3	2	2	7	216	0	5	5	1	526	10	"irritant"	1	1
"1754"	14	"v"	90	3	2	2	5	216	1	6	6	1	751	6	"liefhebbend"	1	1
"1755"	14	"v"	91	3	2	2	0	216	1	6	6	1	480	7	"sympathiek"	0	2
"1756"	14	"v"	92	3	2	2	2	216	0	5	5	1	569	6	"onsympathiek"	1	1
"1757"	14	"v"	93	3	2	2	5	216	0	5	5	1	573	7	"stug"	1	1
"1758"	14	"v"	94	3	2	2	5	216	0	5	5	1	615	7	"onsympathiek"	1	1
"1759"	14	"v"	95	3	2	1	1	216	1	6	6	1	508	1	"sympathiek"	0	2
"1760"	14	"v"	96	3	2	1	1	216	0	5	5	1	517	1	"stug"	0	2
"1761"	14	"v"	97	4	2	2	5	216	1	6	6	1	822	1	"aangenaam"	1	1
"1762"	14	"v"	98	4	2	1	3	216	1	6	6	1	522	1	"lief"	1	1
"1763"	14	"v"	99	4	2	1	6	216	1	6	6	1	523	7	"vriendelijk"	1	1
"1764"	14	"v"	100	4	2	2	0	216	1	6	6	1	401	6	"vriendelijk"	0	2
"1765"	14	"v"	101	4	2	2	7	216	0	5	5	1	628	1	"onaardig"	1	1
"1766"	14	"v"	102	4	2	2	0	216	0	5	5	1	462	1	"irritant"	0	2
"1767"	14	"v"	103	4	2	1	6	216	1	6	6	1	474	1	"mooi"	1	1
"1768"	14	"v"	104	4	2	1	3	216	1	6	6	1	384	1	"mooi"	1	1
"1769"	14	"v"	105	4	2	2	0	216	1	6	6	1	382	7	"mooi"	0	2
"1770"	14	"v"	106	4	2	1	4	216	0	5	5	1	346	6	"onaardig"	1	1
"1771"	14	"v"	107	4	2	2	5	216	1	6	6	1	545	8	"sympathiek"	1	1
"1772"	14	"v"	108	4	2	1	3	216	0	5	5	1	444	7	"irritant"	1	1
"1773"	14	"v"	109	4	2	1	3	216	0	5	5	1	549	1	"onvriendelijk"	1	1
"1774"	14	"v"	110	4	2	2	7	216	0	5	5	1	533	1	"onvriendelijk"	1	1
"1775"	14	"v"	111	4	2	2	0	216	0	5	5	1	531	1	"onvriendelijk"	0	2
"1776"	14	"v"	112	4	2	2	7	216	1	6	6	1	497	1	"sympathiek"	1	1
"1777"	14	"v"	113	4	2	2	2	216	0	5	5	1	588	1	"onsympathiek"	1	1
"1778"	14	"v"	114	4	2	2	5	216	1	6	6	1	564	1	"mooi"	1	1
"1779"	14	"v"	115	4	2	1	6	216	0	5	5	1	555	7	"onvriendelijk"	1	1
"1780"	14	"v"	116	4	2	2	0	216	0	5	5	1	548	6	"irritant"	0	2
"1781"	14	"v"	117	4	2	1	4	216	1	6	6	1	584	1	"liefhebbend"	1	1
"1782"	14	"v"	118	4	2	1	6	216	1	6	6	1	354	1	"mooi"	1	1
"1783"	14	"v"	119	4	2	1	1	216	0	5	5	1	520	7	"irritant"	0	2
"1785"	14	"v"	121	4	2	1	3	216	1	6	6	1	529	1	"sympathiek"	1	1
"1786"	14	"v"	122	4	2	1	3	216	0	5	5	1	623	6	"irritant"	1	1
"1787"	14	"v"	123	4	2	2	2	216	0	5	5	1	629	1	"onsympathiek"	1	1
"1788"	14	"v"	124	4	2	1	6	216	1	6	6	1	468	7	"vriendelijk"	1	1
"1789"	14	"v"	125	4	2	2	0	216	0	5	5	1	499	1	"onsympathiek"	0	2
"1790"	14	"v"	126	4	2	2	2	216	1	6	6	1	582	7	"aangenaam"	1	1
"1791"	14	"v"	127	4	2	2	0	216	1	6	6	1	475	6	"aangenaam"	0	2
"1792"	14	"v"	128	4	2	1	3	216	0	5	5	1	490	10	"stug"	1	1
"1795"	15	"v"	3	1	2	2	6	216	1	6	6	1	863	1	"sympathiek"	1	1
"1796"	15	"v"	4	1	2	1	3	216	1	6	6	1	822	6	"aangenaam"	0	2
"1797"	15	"v"	5	1	2	1	4	216	0	5	5	1	840	7	"onsympathiek"	1	1
"1798"	15	"v"	6	1	2	2	7	216	0	5	5	1	732	7	"stug"	0	3
"1799"	15	"v"	7	1	2	1	4	216	0	5	5	1	728	1	"onsympathiek"	1	1
"1800"	15	"v"	8	1	2	1	5	216	1	6	6	1	1017	1	"mooi"	0	2
"1801"	15	"v"	9	1	2	1	5	216	0	5	5	1	693	6	"irritant"	0	2
"1802"	15	"v"	10	1	2	1	3	216	1	6	6	1	785	7	"lief"	0	2
"1803"	15	"v"	11	1	2	2	7	216	1	6	6	1	598	8	"aangenaam"	0	3
"1804"	15	"v"	12	1	2	1	2	216	0	5	5	1	528	6	"irritant"	0	3
"1805"	15	"v"	13	1	2	2	6	216	0	5	5	1	689	1	"humeurig"	1	1
"1806"	15	"v"	14	1	2	1	5	216	1	6	6	1	533	1	"mooi"	0	2
"1807"	15	"v"	15	1	2	2	7	216	1	6	6	1	518	1	"mooi"	0	3
"1808"	15	"v"	16	1	2	1	4	216	1	6	6	1	535	1	"lief"	1	1
"1809"	15	"v"	17	1	2	2	7	216	0	5	5	1	675	7	"onvriendelijk"	0	3
"1810"	15	"v"	18	1	2	2	0	216	0	5	5	1	604	6	"irritant"	0	2
"1811"	15	"v"	19	1	2	2	1	216	1	6	6	1	568	1	"vriendelijk"	1	1
"1812"	15	"v"	20	1	2	2	0	216	1	6	6	1	676	1	"sympathiek"	0	2
"1813"	15	"v"	21	1	2	2	7	216	0	5	5	1	524	7	"onvriendelijk"	0	3
"1814"	15	"v"	22	1	2	1	4	216	1	6	6	1	483	6	"mooi"	1	1
"1815"	15	"v"	23	1	2	1	4	216	1	6	6	1	544	1	"aangenaam"	1	1
"1816"	15	"v"	24	1	2	1	5	216	1	6	6	1	570	6	"aangenaam"	0	2
"1817"	15	"v"	25	1	2	2	6	216	0	5	5	1	599	1	"onsympathiek"	1	1
"1818"	15	"v"	26	1	2	1	4	216	1	6	6	1	398	7	"mooi"	1	1
"1819"	15	"v"	27	1	2	2	1	216	0	5	5	1	544	7	"onsympathiek"	1	1
"1820"	15	"v"	28	1	2	2	1	216	1	6	6	1	793	1	"liefhebbend"	1	1
"1821"	15	"v"	29	1	2	1	5	216	1	6	6	1	491	1	"mooi"	0	2
"1822"	15	"v"	30	1	2	2	0	216	1	6	6	1	688	7	"aangenaam"	0	2
"1823"	15	"v"	31	1	2	2	7	216	0	5	5	1	590	1	"onvriendelijk"	0	3
"1824"	15	"v"	32	1	2	1	2	216	0	5	5	1	577	7	"irritant"	0	3
"1825"	15	"v"	33	2	2	2	7	216	1	6	6	1	603	1	"vriendelijk"	0	3
"1826"	15	"v"	34	2	2	1	3	216	1	6	6	1	564	7	"vriendelijk"	0	2
"1827"	15	"v"	35	2	2	2	7	216	0	5	5	1	914	9	"humeurig"	0	3
"1828"	15	"v"	36	2	2	1	5	216	0	5	5	1	834	10	"humeurig"	0	2
"1829"	15	"v"	37	2	2	2	7	216	1	6	6	1	581	1	"lief"	0	3
"1830"	15	"v"	38	2	2	2	6	216	0	5	5	1	802	1	"onsympathiek"	1	1
"1831"	15	"v"	39	2	2	1	2	216	0	5	5	1	940	1	"onaardig"	0	3
"1832"	15	"v"	40	2	2	2	6	216	1	6	6	1	714	7	"aangenaam"	1	1
"1833"	15	"v"	41	2	2	1	4	216	1	6	6	1	555	7	"mooi"	1	1
"1834"	15	"v"	42	2	2	1	2	216	1	6	6	1	621	9	"sympathiek"	0	3
"1835"	15	"v"	43	2	2	1	3	216	1	6	6	1	588	6	"aangenaam"	0	2
"1836"	15	"v"	44	2	2	1	4	216	0	5	5	1	569	1	"stug"	1	1
"1838"	15	"v"	46	2	2	2	1	216	1	6	6	1	513	1	"mooi"	1	1
"1839"	15	"v"	47	2	2	1	5	216	0	5	5	1	582	6	"humeurig"	0	2
"1840"	15	"v"	48	2	2	1	3	216	0	5	5	1	756	7	"humeurig"	0	2
"1841"	15	"v"	49	2	2	2	1	216	0	5	5	1	599	7	"onsympathiek"	1	1
"1842"	15	"v"	50	2	2	2	6	216	1	6	6	1	450	10	"lief"	1	1
"1843"	15	"v"	51	2	2	2	1	216	0	5	5	1	807	1	"onaardig"	1	1
"1844"	15	"v"	52	2	2	2	0	216	1	6	6	1	596	1	"vriendelijk"	0	2
"1845"	15	"v"	53	2	2	2	0	216	0	5	5	1	867	7	"humeurig"	0	2
"1846"	15	"v"	54	2	2	1	4	216	0	5	5	1	872	1	"irritant"	1	1
"1847"	15	"v"	55	2	2	2	0	216	1	6	6	1	730	7	"lief"	0	2
"1848"	15	"v"	56	2	2	1	4	216	0	5	5	1	786	7	"onvriendelijk"	1	1
"1849"	15	"v"	57	2	2	2	6	216	1	6	6	1	806	7	"mooi"	1	1
