"ppn"	"mv"	"trial"	"blk"	"hnd"	"tfac"	"fac"	"prmt"	"ttype"	"xr"	"r"	"cor"	"rt"	"re"	"target"	"contingency_aware"	"contingency_correct"
"1"	1	"v"	1	1	1	2	4	216	1	5	5	1	540	1	"lief"	1	1
"2"	1	"v"	2	1	1	2	3	216	0	6	6	1	475	7	"onaardig"	0	2
"3"	1	"v"	3	1	1	1	1	216	1	5	5	1	523	1	"vriendelijk"	0	2
"4"	1	"v"	4	1	1	2	6	216	0	6	6	1	485	7	"irritant"	1	1
"5"	1	"v"	5	1	1	1	7	216	1	5	5	1	467	1	"vriendelijk"	1	1
"6"	1	"v"	6	1	1	2	4	216	0	6	6	1	421	7	"onvriendelijk"	1	1
"7"	1	"v"	7	1	1	1	5	216	0	6	6	1	495	7	"onvriendelijk"	1	1
"8"	1	"v"	8	1	1	2	6	216	1	5	5	1	427	1	"lief"	1	1
"9"	1	"v"	9	1	1	2	6	216	0	6	6	1	511	7	"onaardig"	1	1
"10"	1	"v"	10	1	1	1	1	216	1	5	5	1	374	6	"vriendelijk"	0	2
"11"	1	"v"	11	1	1	1	0	216	1	5	5	1	457	1	"sympathiek"	1	1
"12"	1	"v"	12	1	1	1	5	216	1	5	5	1	394	7	"liefhebbend"	1	1
"13"	1	"v"	13	1	1	2	6	216	1	5	5	1	411	7	"aangenaam"	1	1
"14"	1	"v"	14	1	1	2	4	216	1	5	5	1	413	1	"sympathiek"	1	1
"15"	1	"v"	15	1	1	2	4	216	1	5	5	1	468	1	"aangenaam"	1	1
"16"	1	"v"	16	1	1	2	4	216	0	6	6	1	568	7	"onvriendelijk"	1	1
"17"	1	"v"	17	1	1	1	0	216	1	5	5	1	484	7	"aangenaam"	1	1
"18"	1	"v"	18	1	1	1	0	216	1	5	5	1	392	1	"sympathiek"	1	1
"19"	1	"v"	19	1	1	1	1	216	0	6	6	1	578	1	"humeurig"	0	2
"20"	1	"v"	20	1	1	2	6	216	1	5	5	1	471	1	"lief"	1	1
"21"	1	"v"	21	1	1	2	2	216	1	5	5	1	427	8	"aangenaam"	0	2
"22"	1	"v"	22	1	1	1	0	216	0	6	6	1	544	6	"stug"	1	1
"23"	1	"v"	23	1	1	1	5	216	0	6	6	1	502	1	"stug"	1	1
"24"	1	"v"	24	1	1	1	1	216	0	6	6	1	469	7	"onsympathiek"	0	2
"25"	1	"v"	25	1	1	2	2	216	1	5	5	1	420	7	"mooi"	0	2
"26"	1	"v"	26	1	1	1	7	216	0	6	6	1	376	6	"onaardig"	1	1
"27"	1	"v"	27	1	1	1	7	216	1	5	5	1	459	1	"sympathiek"	1	1
"28"	1	"v"	28	1	1	2	2	216	1	5	5	1	503	1	"liefhebbend"	0	2
"30"	1	"v"	30	1	1	2	2	216	0	6	6	1	453	1	"onvriendelijk"	0	2
"31"	1	"v"	31	1	1	2	2	216	0	6	6	1	459	1	"onsympathiek"	0	2
"33"	1	"v"	33	2	1	1	1	216	0	6	6	1	468	6	"stug"	0	2
"34"	1	"v"	34	2	1	2	2	216	0	6	6	1	460	1	"irritant"	0	2
"35"	1	"v"	35	2	1	2	3	216	0	6	6	1	464	1	"stug"	0	2
"36"	1	"v"	36	2	1	2	2	216	0	6	6	1	450	10	"irritant"	0	2
"37"	1	"v"	37	2	1	2	6	216	0	6	6	1	456	7	"onsympathiek"	1	1
"38"	1	"v"	38	2	1	1	7	216	0	6	6	1	444	1	"onsympathiek"	1	1
"39"	1	"v"	39	2	1	1	5	216	0	6	6	1	464	1	"onvriendelijk"	1	1
"40"	1	"v"	40	2	1	2	3	216	0	6	6	1	457	1	"onvriendelijk"	0	2
"41"	1	"v"	41	2	1	2	2	216	0	6	6	1	448	7	"onaardig"	0	2
"42"	1	"v"	42	2	1	1	7	216	1	5	5	1	471	1	"mooi"	1	1
"43"	1	"v"	43	2	1	1	0	216	0	6	6	1	475	1	"onsympathiek"	1	1
"44"	1	"v"	44	2	1	2	3	216	1	5	5	1	581	1	"vriendelijk"	0	2
"45"	1	"v"	45	2	1	2	4	216	1	5	5	1	586	6	"vriendelijk"	1	1
"46"	1	"v"	46	2	1	1	0	216	0	6	6	1	510	1	"irritant"	1	1
"48"	1	"v"	48	2	1	1	0	216	1	5	5	1	433	7	"mooi"	1	1
"50"	1	"v"	50	2	1	1	5	216	1	5	5	1	481	1	"lief"	1	1
"51"	1	"v"	51	2	1	1	1	216	0	6	6	1	478	7	"irritant"	0	2
"52"	1	"v"	52	2	1	2	6	216	0	6	6	1	492	1	"onsympathiek"	1	1
"53"	1	"v"	53	2	1	2	3	216	1	5	5	1	499	1	"aangenaam"	0	2
"54"	1	"v"	54	2	1	2	3	216	1	5	5	1	461	1	"mooi"	0	2
"55"	1	"v"	55	2	1	2	2	216	1	5	5	1	491	1	"aangenaam"	0	2
"56"	1	"v"	56	2	1	1	7	216	1	5	5	1	455	1	"vriendelijk"	1	1
"57"	1	"v"	57	2	1	1	7	216	1	5	5	1	400	1	"vriendelijk"	1	1
"58"	1	"v"	58	2	1	2	3	216	1	5	5	1	474	7	"vriendelijk"	0	2
"59"	1	"v"	59	2	1	2	3	216	1	5	5	1	440	7	"aangenaam"	0	2
"60"	1	"v"	60	2	1	2	6	216	1	5	5	1	412	1	"vriendelijk"	1	1
"61"	1	"v"	61	2	1	2	6	216	0	6	6	1	440	7	"onsympathiek"	1	1
"62"	1	"v"	62	2	1	2	6	216	1	5	5	1	467	1	"liefhebbend"	1	1
"63"	1	"v"	63	2	1	1	0	216	0	6	6	1	474	1	"onsympathiek"	1	1
"64"	1	"v"	64	2	1	1	0	216	1	5	5	1	589	7	"lief"	1	1
"65"	1	"v"	65	3	1	2	2	216	0	6	6	1	447	1	"onaardig"	0	2
"66"	1	"v"	66	3	1	2	4	216	0	6	6	1	456	7	"humeurig"	1	1
"67"	1	"v"	67	3	1	2	6	216	0	6	6	1	456	1	"onaardig"	1	1
"68"	1	"v"	68	3	1	1	5	216	1	5	5	1	471	7	"sympathiek"	1	1
"69"	1	"v"	69	3	1	1	7	216	0	6	6	1	497	7	"stug"	1	1
"70"	1	"v"	70	3	1	2	2	216	1	5	5	1	458	1	"vriendelijk"	0	2
"71"	1	"v"	71	3	1	1	1	216	1	5	5	1	414	7	"vriendelijk"	0	2
"72"	1	"v"	72	3	1	2	4	216	0	6	6	1	403	1	"humeurig"	1	1
"73"	1	"v"	73	3	1	2	2	216	0	6	6	1	448	7	"stug"	0	2
"74"	1	"v"	74	3	1	1	7	216	0	6	6	1	483	7	"onsympathiek"	1	1
"75"	1	"v"	75	3	1	2	6	216	0	6	6	1	395	7	"onaardig"	1	1
"76"	1	"v"	76	3	1	1	1	216	1	5	5	1	448	1	"mooi"	0	2
"78"	1	"v"	78	3	1	1	1	216	0	6	6	1	467	7	"stug"	0	2
"79"	1	"v"	79	3	1	2	4	216	0	6	6	1	494	1	"stug"	1	1
"80"	1	"v"	80	3	1	2	4	216	0	6	6	1	543	7	"onvriendelijk"	1	1
"81"	1	"v"	81	3	1	1	5	216	0	6	6	1	444	1	"stug"	1	1
"82"	1	"v"	82	3	1	1	1	216	0	6	6	1	443	1	"onaardig"	0	2
"83"	1	"v"	83	3	1	1	5	216	0	6	6	1	436	7	"onvriendelijk"	1	1
"84"	1	"v"	84	3	1	1	7	216	0	6	6	1	404	6	"onvriendelijk"	1	1
"85"	1	"v"	85	3	1	2	4	216	1	5	5	1	519	1	"lief"	1	1
"86"	1	"v"	86	3	1	1	0	216	0	6	6	1	451	1	"irritant"	1	1
"87"	1	"v"	87	3	1	1	5	216	1	5	5	1	518	1	"lief"	1	1
"88"	1	"v"	88	3	1	2	6	216	1	5	5	1	544	1	"liefhebbend"	1	1
"89"	1	"v"	89	3	1	1	5	216	1	5	5	1	482	1	"mooi"	1	1
"90"	1	"v"	90	3	1	2	6	216	1	5	5	1	492	7	"aangenaam"	1	1
"91"	1	"v"	91	3	1	1	7	216	0	6	6	1	578	1	"humeurig"	1	1
"92"	1	"v"	92	3	1	2	2	216	0	6	6	1	579	1	"irritant"	0	2
"93"	1	"v"	93	3	1	1	1	216	1	5	5	1	518	1	"aangenaam"	0	2
"94"	1	"v"	94	3	1	1	5	216	0	6	6	1	560	7	"humeurig"	1	1
"95"	1	"v"	95	3	1	1	7	216	0	6	6	1	624	1	"humeurig"	1	1
"96"	1	"v"	96	3	1	2	3	216	0	6	6	1	478	1	"onaardig"	0	2
"97"	1	"v"	97	4	1	1	5	216	1	5	5	1	504	7	"lief"	1	1
"98"	1	"v"	98	4	1	2	2	216	1	5	5	1	489	7	"mooi"	0	2
"99"	1	"v"	99	4	1	2	6	216	0	6	6	1	423	1	"irritant"	1	1
"100"	1	"v"	100	4	1	2	3	216	0	6	6	1	414	7	"onvriendelijk"	0	2
"101"	1	"v"	101	4	1	1	0	216	1	5	5	1	461	1	"aangenaam"	1	1
"102"	1	"v"	102	4	1	2	4	216	0	6	6	1	432	1	"humeurig"	1	1
"103"	1	"v"	103	4	1	2	4	216	0	6	6	1	386	1	"irritant"	1	1
"104"	1	"v"	104	4	1	1	0	216	0	6	6	1	475	1	"humeurig"	1	1
"105"	1	"v"	105	4	1	2	3	216	0	6	6	1	454	7	"onvriendelijk"	0	2
"106"	1	"v"	106	4	1	2	3	216	1	5	5	1	544	7	"vriendelijk"	0	2
"107"	1	"v"	107	4	1	1	1	216	1	5	5	1	517	1	"mooi"	0	2
"108"	1	"v"	108	4	1	2	2	216	1	5	5	1	545	7	"aangenaam"	0	2
"109"	1	"v"	109	4	1	1	7	216	1	5	5	1	524	1	"vriendelijk"	1	1
"110"	1	"v"	110	4	1	1	0	216	0	6	6	1	473	7	"stug"	1	1
"111"	1	"v"	111	4	1	1	1	216	1	5	5	1	550	7	"liefhebbend"	0	2
"112"	1	"v"	112	4	1	2	6	216	1	5	5	1	452	7	"mooi"	1	1
"113"	1	"v"	113	4	1	1	0	216	0	6	6	1	471	1	"onsympathiek"	1	1
"114"	1	"v"	114	4	1	1	5	216	0	6	6	1	486	1	"irritant"	1	1
"115"	1	"v"	115	4	1	1	1	216	0	6	6	1	450	6	"irritant"	0	2
"116"	1	"v"	116	4	1	1	5	216	1	5	5	1	513	8	"vriendelijk"	1	1
"117"	1	"v"	117	4	1	2	4	216	1	5	5	1	579	8	"vriendelijk"	1	1
"118"	1	"v"	118	4	1	1	7	216	1	5	5	1	535	1	"liefhebbend"	1	1
"119"	1	"v"	119	4	1	2	3	216	1	5	5	1	490	7	"sympathiek"	0	2
"120"	1	"v"	120	4	1	1	0	216	1	5	5	1	463	7	"vriendelijk"	1	1
"121"	1	"v"	121	4	1	2	2	216	1	5	5	1	461	7	"aangenaam"	0	2
"122"	1	"v"	122	4	1	1	1	216	1	5	5	1	451	1	"lief"	0	2
"123"	1	"v"	123	4	1	1	1	216	0	6	6	1	585	6	"irritant"	0	2
"124"	1	"v"	124	4	1	1	7	216	1	5	5	1	514	1	"sympathiek"	1	1
"125"	1	"v"	125	4	1	2	3	216	1	5	5	1	443	7	"mooi"	0	2
"126"	1	"v"	126	4	1	2	4	216	1	5	5	1	606	1	"vriendelijk"	1	1
"127"	1	"v"	127	4	1	2	3	216	0	6	6	1	485	7	"irritant"	0	2
"128"	1	"v"	128	4	1	1	5	216	0	6	6	1	468	7	"onaardig"	1	1
"129"	2	"v"	1	1	2	1	5	216	1	6	6	1	752	7	"sympathiek"	1	1
"130"	2	"v"	2	1	2	1	7	216	0	5	5	1	619	7	"onvriendelijk"	1	1
"132"	2	"v"	4	1	2	1	7	216	1	6	6	1	513	7	"vriendelijk"	1	1
"133"	2	"v"	5	1	2	2	2	216	0	5	5	1	630	7	"humeurig"	1	1
"135"	2	"v"	7	1	2	2	3	216	1	6	6	1	520	6	"aangenaam"	0	2
"136"	2	"v"	8	1	2	1	7	216	0	5	5	1	747	6	"humeurig"	1	1
"137"	2	"v"	9	1	2	1	1	216	1	6	6	1	513	1	"aangenaam"	1	1
"138"	2	"v"	10	1	2	2	3	216	1	6	6	1	425	1	"mooi"	0	2
"139"	2	"v"	11	1	2	1	0	216	1	6	6	1	422	1	"vriendelijk"	0	4
"140"	2	"v"	12	1	2	1	7	216	0	5	5	1	519	7	"humeurig"	1	1
"141"	2	"v"	13	1	2	1	1	216	0	5	5	1	559	7	"onaardig"	1	1
"142"	2	"v"	14	1	2	2	6	216	0	5	5	1	646	1	"onaardig"	1	1
"143"	2	"v"	15	1	2	1	0	216	1	6	6	1	559	1	"liefhebbend"	0	4
"144"	2	"v"	16	1	2	2	6	216	1	6	6	1	447	7	"aangenaam"	1	1
"145"	2	"v"	17	1	2	1	5	216	1	6	6	1	402	8	"vriendelijk"	1	1
"146"	2	"v"	18	1	2	2	3	216	0	5	5	1	503	1	"onvriendelijk"	0	2
"147"	2	"v"	19	1	2	1	5	216	0	5	5	1	500	1	"humeurig"	1	1
"148"	2	"v"	20	1	2	2	3	216	0	5	5	1	466	7	"onvriendelijk"	0	2
"149"	2	"v"	21	1	2	2	4	216	1	6	6	1	402	1	"mooi"	0	3
"150"	2	"v"	22	1	2	2	6	216	1	6	6	1	503	7	"sympathiek"	1	1
"151"	2	"v"	23	1	2	2	4	216	0	5	5	1	525	25	"humeurig"	0	3
"152"	2	"v"	24	1	2	1	5	216	0	5	5	1	773	1	"stug"	1	1
"153"	2	"v"	25	1	2	2	2	216	0	5	5	1	472	1	"onaardig"	1	1
"154"	2	"v"	26	1	2	2	3	216	1	6	6	1	484	1	"mooi"	0	2
"155"	2	"v"	27	1	2	1	0	216	0	5	5	1	631	1	"onvriendelijk"	0	4
"156"	2	"v"	28	1	2	2	4	216	0	5	5	1	483	7	"stug"	0	3
"157"	2	"v"	29	1	2	1	5	216	1	6	6	1	470	7	"vriendelijk"	1	1
"158"	2	"v"	30	1	2	2	2	216	1	6	6	1	408	7	"sympathiek"	1	1
"159"	2	"v"	31	1	2	2	6	216	1	6	6	1	371	1	"lief"	1	1
"160"	2	"v"	32	1	2	2	6	216	0	5	5	1	437	7	"stug"	1	1
"161"	2	"v"	33	2	2	2	6	216	1	6	6	1	488	1	"lief"	1	1
"162"	2	"v"	34	2	2	2	4	233	0	5	5	1	640	1	"onsympathiek"	0	3
"163"	2	"v"	35	2	2	1	5	216	1	6	6	1	521	7	"lief"	1	1
"164"	2	"v"	36	2	2	1	7	216	1	6	6	1	442	1	"liefhebbend"	1	1
"165"	2	"v"	37	2	2	2	6	216	0	5	5	1	476	7	"onaardig"	1	1
"166"	2	"v"	38	2	2	2	4	216	1	6	6	1	466	7	"lief"	0	3
"167"	2	"v"	39	2	2	1	5	216	0	5	5	1	497	1	"stug"	1	1
"168"	2	"v"	40	2	2	1	7	216	1	6	6	1	487	1	"vriendelijk"	1	1
"169"	2	"v"	41	2	2	1	5	216	0	5	5	1	625	1	"onvriendelijk"	1	1
"170"	2	"v"	42	2	2	1	7	216	0	5	5	1	498	7	"onsympathiek"	1	1
"171"	2	"v"	43	2	2	2	2	216	1	6	6	1	473	7	"sympathiek"	1	1
"172"	2	"v"	44	2	2	1	7	216	0	5	5	1	491	7	"onaardig"	1	1
"173"	2	"v"	45	2	2	1	0	216	0	5	5	1	670	7	"irritant"	0	4
"174"	2	"v"	46	2	2	2	3	216	0	5	5	1	447	7	"irritant"	0	2
"175"	2	"v"	47	2	2	2	4	216	1	6	6	1	387	6	"sympathiek"	0	3
"176"	2	"v"	48	2	2	1	1	216	0	5	5	1	518	7	"humeurig"	1	1
"177"	2	"v"	49	2	2	2	6	216	0	5	5	1	523	7	"irritant"	1	1
"178"	2	"v"	50	2	2	1	0	216	1	6	6	1	405	10	"sympathiek"	0	4
"179"	2	"v"	51	2	2	2	2	216	0	5	5	1	459	6	"onvriendelijk"	1	1
"180"	2	"v"	52	2	2	1	5	216	1	6	6	1	408	7	"lief"	1	1
"182"	2	"v"	54	2	2	1	1	216	0	5	5	1	500	1	"irritant"	1	1
"183"	2	"v"	55	2	2	2	6	216	1	6	6	1	424	1	"vriendelijk"	1	1
"184"	2	"v"	56	2	2	2	3	216	1	6	6	1	393	1	"vriendelijk"	0	2
"185"	2	"v"	57	2	2	1	0	216	1	6	6	1	392	7	"mooi"	0	4
"186"	2	"v"	58	2	2	2	3	216	1	6	6	1	368	7	"vriendelijk"	0	2
"187"	2	"v"	59	2	2	1	0	216	0	5	5	1	483	7	"irritant"	0	4
"188"	2	"v"	60	2	2	1	5	216	0	5	5	1	442	7	"stug"	1	1
"189"	2	"v"	61	2	2	1	5	216	0	5	5	1	553	7	"onsympathiek"	1	1
"190"	2	"v"	62	2	2	1	7	216	1	6	6	1	352	6	"mooi"	1	1
"191"	2	"v"	63	2	2	2	6	216	1	6	6	1	475	7	"vriendelijk"	1	1
"192"	2	"v"	64	2	2	2	4	216	0	5	5	1	474	1	"onvriendelijk"	0	3
"193"	2	"v"	65	3	2	2	3	216	0	5	5	1	430	6	"irritant"	0	2
"194"	2	"v"	66	3	2	1	0	216	0	5	5	1	464	1	"onvriendelijk"	0	4
"195"	2	"v"	67	3	2	1	1	216	1	6	6	1	355	1	"lief"	1	1
"196"	2	"v"	68	3	2	2	3	216	1	6	6	1	534	1	"aangenaam"	0	2
"197"	2	"v"	69	3	2	1	1	216	1	6	6	1	377	1	"mooi"	1	1
"198"	2	"v"	70	3	2	1	5	216	0	5	5	1	446	7	"onsympathiek"	1	1
"199"	2	"v"	71	3	2	1	1	216	0	5	5	1	474	1	"onsympathiek"	1	1
"200"	2	"v"	72	3	2	1	1	216	0	5	5	1	537	1	"onaardig"	1	1
"201"	2	"v"	73	3	2	2	4	216	1	6	6	1	391	7	"aangenaam"	0	3
"202"	2	"v"	74	3	2	2	2	216	0	5	5	1	489	8	"onvriendelijk"	1	1
"203"	2	"v"	75	3	2	2	6	216	1	6	6	1	418	7	"mooi"	1	1
"204"	2	"v"	76	3	2	1	7	216	1	6	6	1	492	1	"aangenaam"	1	1
"205"	2	"v"	77	3	2	2	2	216	0	5	5	1	619	1	"onvriendelijk"	1	1
"206"	2	"v"	78	3	2	1	7	216	0	5	5	1	451	1	"onsympathiek"	1	1
"207"	2	"v"	79	3	2	2	4	216	0	5	5	1	511	7	"stug"	0	3
"208"	2	"v"	80	3	2	2	2	216	1	6	6	1	358	1	"lief"	1	1
"209"	2	"v"	81	3	2	2	4	216	0	5	5	1	500	1	"onsympathiek"	0	3
"210"	2	"v"	82	3	2	1	7	216	1	6	6	1	452	6	"liefhebbend"	1	1
"211"	2	"v"	83	3	2	1	0	216	0	5	5	1	483	7	"onsympathiek"	0	4
"212"	2	"v"	84	3	2	1	7	216	1	6	6	1	612	1	"aangenaam"	1	1
"213"	2	"v"	85	3	2	2	2	216	1	6	6	1	395	1	"aangenaam"	1	1
"214"	2	"v"	86	3	2	2	3	216	0	5	5	1	538	1	"onsympathiek"	0	2
"215"	2	"v"	87	3	2	2	6	216	0	5	5	1	445	7	"stug"	1	1
"216"	2	"v"	88	3	2	2	6	216	0	5	5	1	371	1	"stug"	1	1
"217"	2	"v"	89	3	2	1	7	216	0	5	5	1	477	7	"humeurig"	1	1
"218"	2	"v"	90	3	2	1	1	216	1	6	6	1	399	1	"liefhebbend"	1	1
"219"	2	"v"	91	3	2	1	7	216	1	6	6	1	389	7	"mooi"	1	1
"220"	2	"v"	92	3	2	2	4	216	1	6	6	1	370	7	"vriendelijk"	0	3
"221"	2	"v"	93	3	2	2	6	216	0	5	5	1	406	7	"onaardig"	1	1
"222"	2	"v"	94	3	2	2	4	216	1	6	6	1	383	7	"mooi"	0	3
"223"	2	"v"	95	3	2	1	1	216	1	6	6	1	599	1	"sympathiek"	1	1
"224"	2	"v"	96	3	2	1	5	216	1	6	6	1	373	7	"vriendelijk"	1	1
"225"	2	"v"	97	4	2	2	2	216	0	5	5	1	460	7	"onsympathiek"	1	1
"226"	2	"v"	98	4	2	2	4	216	0	5	5	1	468	1	"onaardig"	0	3
"227"	2	"v"	99	4	2	1	5	216	0	5	5	1	353	7	"stug"	1	1
"228"	2	"v"	100	4	2	2	2	216	1	6	6	1	354	1	"liefhebbend"	1	1
"229"	2	"v"	101	4	2	1	0	216	0	5	5	1	418	1	"onsympathiek"	0	4
"230"	2	"v"	102	4	2	1	0	216	1	6	6	1	474	1	"sympathiek"	0	4
"231"	2	"v"	103	4	2	2	3	216	1	6	6	1	436	7	"lief"	0	2
"232"	2	"v"	104	4	2	2	3	216	1	6	6	1	353	7	"lief"	0	2
"233"	2	"v"	105	4	2	1	5	216	1	6	6	1	466	1	"vriendelijk"	1	1
"234"	2	"v"	106	4	2	2	6	216	1	6	6	1	396	1	"vriendelijk"	1	1
"235"	2	"v"	107	4	2	2	3	216	0	5	5	1	495	7	"onsympathiek"	0	2
"236"	2	"v"	108	4	2	1	1	216	1	6	6	1	391	7	"mooi"	1	1
"237"	2	"v"	109	4	2	1	1	216	1	6	6	1	454	1	"aangenaam"	1	1
"238"	2	"v"	110	4	2	1	0	216	1	6	6	1	349	1	"aangenaam"	0	4
"239"	2	"v"	111	4	2	1	1	216	0	5	5	1	441	7	"onsympathiek"	1	1
"240"	2	"v"	112	4	2	2	2	216	0	5	5	1	666	1	"onvriendelijk"	1	1
"241"	2	"v"	113	4	2	2	4	216	0	5	5	1	535	1	"irritant"	0	3
"242"	2	"v"	114	4	2	2	2	216	1	6	6	1	638	1	"vriendelijk"	1	1
"243"	2	"v"	115	4	2	2	3	216	0	5	5	1	539	1	"humeurig"	0	2
"244"	2	"v"	116	4	2	1	0	216	0	5	5	1	460	1	"irritant"	0	4
"245"	2	"v"	117	4	2	2	2	216	1	6	6	1	536	6	"aangenaam"	1	1
"246"	2	"v"	118	4	2	1	1	216	1	6	6	1	419	6	"aangenaam"	1	1
"247"	2	"v"	119	4	2	1	7	216	0	5	5	1	532	6	"onaardig"	1	1
"248"	2	"v"	120	4	2	1	1	216	0	5	5	1	544	7	"onvriendelijk"	1	1
"249"	2	"v"	121	4	2	1	0	216	1	6	6	1	449	1	"vriendelijk"	0	4
"250"	2	"v"	122	4	2	1	0	216	1	6	6	1	443	7	"aangenaam"	0	4
"251"	2	"v"	123	4	2	2	2	216	1	6	6	1	456	1	"vriendelijk"	1	1
"252"	2	"v"	124	4	2	2	3	216	0	5	5	1	472	6	"humeurig"	0	2
"253"	2	"v"	125	4	2	2	4	216	1	6	6	1	475	1	"lief"	0	3
"254"	2	"v"	126	4	2	2	4	216	1	6	6	1	462	7	"vriendelijk"	0	3
"255"	2	"v"	127	4	2	2	2	216	0	5	5	1	623	1	"humeurig"	1	1
"256"	2	"v"	128	4	2	1	0	216	0	5	5	1	512	1	"irritant"	0	4
"257"	3	"v"	1	1	2	2	4	216	0	5	5	1	882	8	"onaardig"	0	3
"258"	3	"v"	2	1	2	2	5	216	1	6	6	1	738	10	"sympathiek"	0	4
"259"	3	"v"	3	1	2	2	3	216	1	6	6	1	699	1	"vriendelijk"	1	1
"260"	3	"v"	4	1	2	2	1	216	0	5	5	1	755	7	"stug"	1	1
"261"	3	"v"	5	1	2	1	0	216	0	5	5	1	641	7	"stug"	0	4
"262"	3	"v"	6	1	2	2	1	216	0	5	5	1	749	8	"humeurig"	1	1
"263"	3	"v"	7	1	2	2	4	216	0	5	5	1	652	1	"stug"	0	3
"264"	3	"v"	8	1	2	2	5	216	0	5	5	1	788	1	"irritant"	0	4
"265"	3	"v"	9	1	2	2	3	216	1	6	6	1	610	7	"sympathiek"	1	1
"267"	3	"v"	11	1	2	1	0	216	0	5	5	1	651	1	"irritant"	0	4
"268"	3	"v"	12	1	2	2	3	216	0	5	5	1	740	1	"onaardig"	1	1
"269"	3	"v"	13	1	2	2	5	216	0	5	5	1	708	7	"onvriendelijk"	0	4
"270"	3	"v"	14	1	2	1	6	216	0	5	5	1	630	1	"irritant"	0	2
"271"	3	"v"	15	1	2	1	7	216	1	6	6	1	536	10	"sympathiek"	0	2
"272"	3	"v"	16	1	2	2	5	216	1	6	6	1	661	8	"mooi"	0	4
"273"	3	"v"	17	1	2	2	4	216	1	6	6	1	591	8	"lief"	0	3
"274"	3	"v"	18	1	2	1	0	216	0	5	5	1	602	7	"onaardig"	0	4
"275"	3	"v"	19	1	2	1	2	216	1	6	6	1	697	1	"aangenaam"	0	3
"276"	3	"v"	20	1	2	1	7	216	1	6	6	1	585	8	"mooi"	0	2
"277"	3	"v"	21	1	2	1	7	216	0	5	5	1	472	7	"onsympathiek"	0	2
"278"	3	"v"	22	1	2	2	3	216	1	6	6	1	518	1	"mooi"	1	1
"279"	3	"v"	23	1	2	1	6	216	1	6	6	1	424	7	"mooi"	0	2
"280"	3	"v"	24	1	2	2	4	216	1	6	6	1	480	7	"lief"	0	3
"281"	3	"v"	25	1	2	2	4	216	0	5	5	1	544	7	"onaardig"	0	3
"282"	3	"v"	26	1	2	1	0	216	1	6	6	1	512	1	"vriendelijk"	0	4
"284"	3	"v"	28	1	2	1	6	216	1	6	6	1	676	7	"liefhebbend"	0	2
"285"	3	"v"	29	1	2	1	0	216	1	6	6	1	544	1	"mooi"	0	4
"286"	3	"v"	30	1	2	2	1	216	0	5	5	1	638	7	"onvriendelijk"	1	1
"287"	3	"v"	31	1	2	2	1	216	0	5	5	1	571	1	"onaardig"	1	1
"288"	3	"v"	32	1	2	1	0	216	1	6	6	1	773	1	"aangenaam"	0	4
"289"	3	"v"	33	2	2	2	5	216	0	5	5	1	754	1	"onsympathiek"	0	4
"290"	3	"v"	34	2	2	2	1	216	1	6	6	1	709	1	"vriendelijk"	1	1
"291"	3	"v"	35	2	2	1	6	216	0	5	5	1	665	1	"humeurig"	0	2
"292"	3	"v"	36	2	2	2	1	216	1	6	6	1	882	1	"aangenaam"	1	1
"293"	3	"v"	37	2	2	1	7	216	0	5	5	1	793	7	"onvriendelijk"	0	2
"294"	3	"v"	38	2	2	2	4	216	1	6	6	1	755	1	"vriendelijk"	0	3
"295"	3	"v"	39	2	2	1	2	216	0	5	5	1	733	1	"onsympathiek"	0	3
"296"	3	"v"	40	2	2	1	0	216	0	5	5	1	626	1	"irritant"	0	4
"297"	3	"v"	41	2	2	1	2	216	0	5	5	1	572	7	"onaardig"	0	3
"298"	3	"v"	42	2	2	2	1	216	0	5	5	1	680	6	"humeurig"	1	1
"299"	3	"v"	43	2	2	1	7	216	0	5	5	1	693	6	"humeurig"	0	2
"300"	3	"v"	44	2	2	2	4	216	1	6	6	1	641	7	"lief"	0	3
"301"	3	"v"	45	2	2	1	7	216	1	6	6	1	693	1	"sympathiek"	0	2
"303"	3	"v"	47	2	2	1	6	216	1	6	6	1	779	1	"aangenaam"	0	2
"304"	3	"v"	48	2	2	2	1	216	0	5	5	1	587	1	"humeurig"	1	1
"305"	3	"v"	49	2	2	2	1	216	1	6	6	1	612	7	"sympathiek"	1	1
"306"	3	"v"	50	2	2	1	7	216	0	5	5	1	611	1	"humeurig"	0	2
"307"	3	"v"	51	2	2	1	2	216	1	6	6	1	667	1	"mooi"	0	3
"308"	3	"v"	52	2	2	2	5	216	0	5	5	1	632	1	"onvriendelijk"	0	4
"309"	3	"v"	53	2	2	1	7	216	1	6	6	1	846	1	"sympathiek"	0	2
"311"	3	"v"	55	2	2	1	7	216	1	6	6	1	643	6	"mooi"	0	2
"312"	3	"v"	56	2	2	1	6	216	1	6	6	1	607	1	"sympathiek"	0	2
"313"	3	"v"	57	2	2	2	4	216	0	5	5	1	685	7	"onsympathiek"	0	3
"314"	3	"v"	58	2	2	1	0	216	0	5	5	1	610	1	"humeurig"	0	4
"315"	3	"v"	59	2	2	2	1	216	0	5	5	1	554	1	"onvriendelijk"	1	1
"316"	3	"v"	60	2	2	2	4	216	0	5	5	1	559	1	"irritant"	0	3
"317"	3	"v"	61	2	2	1	2	216	1	6	6	1	850	1	"liefhebbend"	0	3
"318"	3	"v"	62	2	2	2	1	216	1	6	6	1	575	7	"liefhebbend"	1	1
"319"	3	"v"	63	2	2	2	4	216	1	6	6	1	570	1	"aangenaam"	0	3
"320"	3	"v"	64	2	2	2	5	216	0	5	5	1	578	1	"humeurig"	0	4
"321"	3	"v"	65	3	2	1	2	216	1	6	6	1	676	1	"mooi"	0	3
"322"	3	"v"	66	3	2	1	2	216	1	6	6	1	510	1	"mooi"	0	3
"323"	3	"v"	67	3	2	2	4	216	0	5	5	1	637	1	"onaardig"	0	3
"324"	3	"v"	68	3	2	1	6	216	0	5	5	1	529	6	"humeurig"	0	2
"325"	3	"v"	69	3	2	2	3	216	0	5	5	1	511	7	"onaardig"	1	1
"326"	3	"v"	70	3	2	2	3	216	0	5	5	1	721	7	"onsympathiek"	1	1
"327"	3	"v"	71	3	2	2	5	216	1	6	6	1	807	1	"liefhebbend"	0	4
"328"	3	"v"	72	3	2	1	6	216	0	5	5	1	584	1	"humeurig"	0	2
"329"	3	"v"	73	3	2	1	6	216	1	6	6	1	752	1	"sympathiek"	0	2
"330"	3	"v"	74	3	2	1	0	216	1	6	6	1	637	7	"sympathiek"	0	4
"331"	3	"v"	75	3	2	1	0	216	0	5	5	1	654	1	"onaardig"	0	4
"332"	3	"v"	76	3	2	2	3	216	0	5	5	1	639	1	"irritant"	1	1
"333"	3	"v"	77	3	2	1	7	216	0	5	5	1	622	21	"irritant"	0	2
"334"	3	"v"	78	3	2	2	5	216	1	6	6	1	507	1	"mooi"	0	4
"335"	3	"v"	79	3	2	1	2	216	1	6	6	1	724	1	"aangenaam"	0	3
"336"	3	"v"	80	3	2	2	4	216	1	6	6	1	631	1	"sympathiek"	0	3
"337"	3	"v"	81	3	2	2	1	216	0	5	5	1	660	6	"stug"	1	1
"338"	3	"v"	82	3	2	2	4	216	0	5	5	1	510	7	"stug"	0	3
"339"	3	"v"	83	3	2	2	3	216	1	6	6	1	624	7	"vriendelijk"	1	1
"340"	3	"v"	84	3	2	2	3	216	0	5	5	1	875	6	"onaardig"	1	1
"341"	3	"v"	85	3	2	2	4	216	1	6	6	1	604	7	"vriendelijk"	0	3
"342"	3	"v"	86	3	2	2	3	216	1	6	6	1	683	9	"lief"	1	1
"343"	3	"v"	87	3	2	1	0	216	1	6	6	1	706	7	"sympathiek"	0	4
"344"	3	"v"	88	3	2	2	4	216	1	6	6	1	588	1	"aangenaam"	0	3
"345"	3	"v"	89	3	2	1	7	216	1	6	6	1	570	7	"vriendelijk"	0	2
"346"	3	"v"	90	3	2	1	6	216	1	6	6	1	543	1	"aangenaam"	0	2
"347"	3	"v"	91	3	2	1	6	216	0	5	5	1	655	6	"onaardig"	0	2
"348"	3	"v"	92	3	2	2	5	216	1	6	6	1	676	7	"liefhebbend"	0	4
"349"	3	"v"	93	3	2	2	1	216	1	6	6	1	506	7	"lief"	1	1
"350"	3	"v"	94	3	2	2	5	216	0	5	5	1	602	7	"humeurig"	0	4
"352"	3	"v"	96	3	2	2	3	216	1	6	6	1	547	6	"aangenaam"	1	1
"353"	3	"v"	97	4	2	2	3	216	0	5	5	1	584	1	"stug"	1	1
"354"	3	"v"	98	4	2	1	6	216	0	5	5	1	743	7	"onvriendelijk"	0	2
"355"	3	"v"	99	4	2	2	3	216	1	6	6	1	749	1	"aangenaam"	1	1
"356"	3	"v"	100	4	2	1	7	216	1	6	6	1	624	7	"vriendelijk"	0	2
"357"	3	"v"	101	4	2	1	2	216	0	5	5	1	622	7	"onsympathiek"	0	3
"358"	3	"v"	102	4	2	1	0	216	1	6	6	1	676	7	"sympathiek"	0	4
"359"	3	"v"	103	4	2	2	3	216	0	5	5	1	735	7	"stug"	1	1
"360"	3	"v"	104	4	2	1	0	216	0	5	5	1	615	10	"irritant"	0	4
"361"	3	"v"	105	4	2	2	4	216	0	5	5	1	714	7	"irritant"	0	3
"362"	3	"v"	106	4	2	1	2	216	1	6	6	1	646	1	"aangenaam"	0	3
"363"	3	"v"	107	4	2	1	0	216	1	6	6	1	618	7	"mooi"	0	4
"364"	3	"v"	108	4	2	1	2	216	0	5	5	1	683	6	"onsympathiek"	0	3
"365"	3	"v"	109	4	2	1	2	216	1	6	6	1	647	7	"lief"	0	3
"366"	3	"v"	110	4	2	2	5	216	0	5	5	1	606	1	"humeurig"	0	4
"367"	3	"v"	111	4	2	1	2	216	0	5	5	1	809	1	"onsympathiek"	0	3
"368"	3	"v"	112	4	2	1	0	216	0	5	5	1	558	1	"stug"	0	4
"369"	3	"v"	113	4	2	2	5	216	1	6	6	1	624	1	"mooi"	0	4
"370"	3	"v"	114	4	2	1	7	216	0	5	5	1	530	1	"onsympathiek"	0	2
"371"	3	"v"	115	4	2	1	7	216	1	6	6	1	634	6	"liefhebbend"	0	2
"372"	3	"v"	116	4	2	1	6	216	0	5	5	1	690	1	"onsympathiek"	0	2
"373"	3	"v"	117	4	2	1	6	216	0	5	5	1	597	7	"onaardig"	0	2
"374"	3	"v"	118	4	2	2	1	216	1	6	6	1	604	1	"vriendelijk"	1	1
"375"	3	"v"	119	4	2	2	5	216	0	5	5	1	853	1	"irritant"	0	4
"376"	3	"v"	120	4	2	2	1	216	1	6	6	1	586	1	"lief"	1	1
"377"	3	"v"	121	4	2	1	2	216	0	5	5	1	756	7	"onsympathiek"	0	3
"378"	3	"v"	122	4	2	1	6	216	1	6	6	1	546	7	"liefhebbend"	0	2
"379"	3	"v"	123	4	2	2	1	216	1	6	6	1	640	1	"aangenaam"	1	1
"380"	3	"v"	124	4	2	1	0	216	1	6	6	1	598	1	"vriendelijk"	0	4
"381"	3	"v"	125	4	2	2	3	216	1	6	6	1	677	1	"lief"	1	1
"382"	3	"v"	126	4	2	1	2	216	0	5	5	1	673	9	"onvriendelijk"	0	3
"383"	3	"v"	127	4	2	2	5	216	1	6	6	1	728	1	"liefhebbend"	0	4
"384"	3	"v"	128	4	2	1	7	216	0	5	5	1	702	1	"onvriendelijk"	0	2
"386"	4	"v"	2	1	1	2	4	216	1	5	5	1	550	1	"liefhebbend"	0	2
"387"	4	"v"	3	1	1	2	5	216	0	6	6	1	565	7	"onvriendelijk"	1	1
"388"	4	"v"	4	1	1	1	6	216	1	5	5	1	551	8	"liefhebbend"	1	1
"389"	4	"v"	5	1	1	2	4	216	1	5	5	1	523	1	"sympathiek"	0	2
"390"	4	"v"	6	1	1	1	2	216	1	5	5	1	499	1	"lief"	0	4
"391"	4	"v"	7	1	1	1	0	216	0	6	6	1	577	1	"onsympathiek"	1	1
"392"	4	"v"	8	1	1	2	4	216	1	5	5	1	510	6	"lief"	0	2
"393"	4	"v"	9	1	1	2	1	216	1	5	5	1	465	1	"sympathiek"	1	1
"394"	4	"v"	10	1	1	2	3	216	0	6	6	1	545	20	"onaardig"	0	3
"395"	4	"v"	11	1	1	1	0	216	0	6	6	1	425	8	"onsympathiek"	1	1
"396"	4	"v"	12	1	1	2	1	216	1	5	5	1	568	1	"liefhebbend"	1	1
"397"	4	"v"	13	1	1	1	7	216	1	5	5	1	420	7	"lief"	0	4
"398"	4	"v"	14	1	1	2	5	216	1	5	5	1	439	1	"vriendelijk"	1	1
"399"	4	"v"	15	1	1	1	6	216	0	6	6	1	588	7	"irritant"	1	1
"400"	4	"v"	16	1	1	1	7	216	1	5	5	1	539	10	"mooi"	0	4
"401"	4	"v"	17	1	1	2	1	216	0	6	6	1	589	1	"irritant"	1	1
"402"	4	"v"	18	1	1	2	5	216	1	5	5	1	616	7	"liefhebbend"	1	1
"403"	4	"v"	19	1	1	2	4	216	1	5	5	1	389	1	"lief"	0	2
"404"	4	"v"	20	1	1	2	3	216	0	6	6	1	588	1	"onaardig"	0	3
"405"	4	"v"	21	1	1	1	0	216	1	5	5	1	624	1	"sympathiek"	1	1
"406"	4	"v"	22	1	1	2	5	216	0	6	6	1	750	7	"humeurig"	1	1
"407"	4	"v"	23	1	1	1	7	216	1	5	5	1	833	6	"lief"	0	4
"408"	4	"v"	24	1	1	1	7	216	1	5	5	1	490	6	"lief"	0	4
"409"	4	"v"	25	1	1	1	7	216	0	6	6	1	514	1	"onsympathiek"	0	4
"410"	4	"v"	26	1	1	2	3	216	1	5	5	1	511	1	"liefhebbend"	0	3
"411"	4	"v"	27	1	1	2	4	216	1	5	5	1	431	6	"vriendelijk"	0	2
"412"	4	"v"	28	1	1	1	2	216	0	6	6	1	569	1	"irritant"	0	4
"413"	4	"v"	29	1	1	2	1	216	1	5	5	1	498	1	"aangenaam"	1	1
"414"	4	"v"	30	1	1	1	6	216	1	5	5	1	548	1	"lief"	1	1
"415"	4	"v"	31	1	1	1	0	216	0	6	6	1	836	1	"stug"	1	1
"416"	4	"v"	32	1	1	1	2	216	1	5	5	1	735	1	"sympathiek"	0	4
"417"	4	"v"	33	2	1	1	7	216	1	5	5	1	401	1	"mooi"	0	4
"418"	4	"v"	34	2	1	1	2	216	1	5	5	1	510	1	"sympathiek"	0	4
"419"	4	"v"	35	2	1	1	7	216	0	6	6	1	539	1	"irritant"	0	4
"420"	4	"v"	36	2	1	2	4	216	0	6	6	1	562	1	"irritant"	0	2
"421"	4	"v"	37	2	1	2	4	216	0	6	6	1	545	7	"stug"	0	2
"422"	4	"v"	38	2	1	2	5	216	1	5	5	1	595	1	"mooi"	1	1
"423"	4	"v"	39	2	1	1	0	216	1	5	5	1	354	6	"mooi"	1	1
"424"	4	"v"	40	2	1	1	7	216	1	5	5	1	491	7	"vriendelijk"	0	4
"425"	4	"v"	41	2	1	1	0	216	1	5	5	1	411	7	"aangenaam"	1	1
"426"	4	"v"	42	2	1	2	5	216	0	6	6	1	634	6	"onaardig"	1	1
"427"	4	"v"	43	2	1	2	1	216	1	5	5	1	563	1	"aangenaam"	1	1
"428"	4	"v"	44	2	1	2	1	216	0	6	6	1	568	1	"humeurig"	1	1
"429"	4	"v"	45	2	1	1	6	216	1	5	5	1	492	7	"liefhebbend"	1	1
"430"	4	"v"	46	2	1	1	0	216	0	6	6	1	510	7	"onvriendelijk"	1	1
"431"	4	"v"	47	2	1	1	2	216	0	6	6	1	560	1	"onsympathiek"	0	4
"432"	4	"v"	48	2	1	2	1	216	0	6	6	1	485	1	"onsympathiek"	1	1
"433"	4	"v"	49	2	1	2	4	216	0	6	6	1	429	6	"onsympathiek"	0	2
"434"	4	"v"	50	2	1	2	5	216	0	6	6	1	546	7	"onaardig"	1	1
"435"	4	"v"	51	2	1	2	3	216	1	5	5	1	446	1	"mooi"	0	3
"436"	4	"v"	52	2	1	2	3	216	1	5	5	1	675	1	"liefhebbend"	0	3
"437"	4	"v"	53	2	1	2	5	216	0	6	6	1	645	7	"stug"	1	1
"438"	4	"v"	54	2	1	2	1	216	0	6	6	1	531	1	"stug"	1	1
"439"	4	"v"	55	2	1	2	4	216	0	6	6	1	564	1	"irritant"	0	2
"440"	4	"v"	56	2	1	2	3	216	1	5	5	1	526	7	"vriendelijk"	0	3
"441"	4	"v"	57	2	1	1	6	216	1	5	5	1	621	7	"vriendelijk"	1	1
"442"	4	"v"	58	2	1	2	5	216	0	6	6	1	567	1	"irritant"	1	1
"443"	4	"v"	59	2	1	1	2	216	0	6	6	1	406	1	"irritant"	0	4
"444"	4	"v"	60	2	1	1	6	216	0	6	6	1	386	1	"onvriendelijk"	1	1
"445"	4	"v"	61	2	1	1	6	216	0	6	6	1	452	1	"onvriendelijk"	1	1
"446"	4	"v"	62	2	1	1	6	216	0	6	6	1	480	7	"onaardig"	1	1
"447"	4	"v"	63	2	1	2	1	216	0	6	6	1	579	1	"humeurig"	1	1
"448"	4	"v"	64	2	1	1	0	216	0	6	6	1	370	7	"onsympathiek"	1	1
"449"	4	"v"	65	3	1	1	6	216	0	6	6	1	460	6	"irritant"	1	1
"451"	4	"v"	67	3	1	1	7	216	0	6	6	1	329	1	"onsympathiek"	0	4
"452"	4	"v"	68	3	1	1	0	216	1	5	5	1	591	6	"mooi"	1	1
"453"	4	"v"	69	3	1	2	1	216	0	6	6	1	669	2	"stug"	1	1
"454"	4	"v"	70	3	1	2	5	216	0	6	6	1	519	1	"onsympathiek"	1	1
"455"	4	"v"	71	3	1	1	6	216	1	5	5	1	492	1	"mooi"	1	1
"456"	4	"v"	72	3	1	2	3	216	0	6	6	1	430	1	"onsympathiek"	0	3
"457"	4	"v"	73	3	1	1	2	216	0	6	6	1	436	1	"humeurig"	0	4
"458"	4	"v"	74	3	1	1	0	216	1	5	5	1	609	1	"lief"	1	1
"459"	4	"v"	75	3	1	1	2	216	1	5	5	1	430	1	"mooi"	0	4
"460"	4	"v"	76	3	1	2	4	216	1	5	5	1	632	1	"mooi"	0	2
"461"	4	"v"	77	3	1	1	0	216	1	5	5	1	434	1	"liefhebbend"	1	1
"463"	4	"v"	79	3	1	1	2	216	0	6	6	1	521	1	"onaardig"	0	4
"464"	4	"v"	80	3	1	1	0	216	1	5	5	1	471	1	"mooi"	1	1
"465"	4	"v"	81	3	1	1	0	216	1	5	5	1	428	1	"liefhebbend"	1	1
"466"	4	"v"	82	3	1	1	2	216	0	6	6	1	448	1	"stug"	0	4
"467"	4	"v"	83	3	1	2	4	216	0	6	6	1	431	7	"onsympathiek"	0	2
"468"	4	"v"	84	3	1	1	0	216	0	6	6	1	418	6	"onaardig"	1	1
"469"	4	"v"	85	3	1	2	3	216	0	6	6	1	492	7	"irritant"	0	3
"470"	4	"v"	86	3	1	2	3	216	0	6	6	1	474	1	"humeurig"	0	3
"471"	4	"v"	87	3	1	1	6	216	1	5	5	1	634	1	"vriendelijk"	1	1
"472"	4	"v"	88	3	1	2	1	216	1	5	5	1	465	7	"lief"	1	1
"473"	4	"v"	89	3	1	2	5	216	1	5	5	1	409	1	"liefhebbend"	1	1
"474"	4	"v"	90	3	1	1	7	216	0	6	6	1	704	1	"stug"	0	4
"475"	4	"v"	91	3	1	1	7	216	1	5	5	1	610	1	"vriendelijk"	0	4
"476"	4	"v"	92	3	1	2	3	216	0	6	6	1	660	7	"humeurig"	0	3
"478"	4	"v"	94	3	1	2	4	216	0	6	6	1	824	1	"humeurig"	0	2
"479"	4	"v"	95	3	1	2	4	216	1	5	5	1	514	1	"lief"	0	2
"480"	4	"v"	96	3	1	2	3	216	1	5	5	1	687	1	"lief"	0	3
"481"	4	"v"	97	4	1	2	1	216	1	5	5	1	472	7	"vriendelijk"	1	1
"482"	4	"v"	98	4	1	1	2	216	1	5	5	1	442	6	"sympathiek"	0	4
"484"	4	"v"	100	4	1	1	6	216	0	6	6	1	593	7	"onsympathiek"	1	1
"485"	4	"v"	101	4	1	1	0	216	0	6	6	1	458	8	"irritant"	1	1
"486"	4	"v"	102	4	1	1	7	216	0	6	6	1	498	7	"humeurig"	0	4
"487"	4	"v"	103	4	1	1	7	216	1	5	5	1	674	1	"sympathiek"	0	4
"488"	4	"v"	104	4	1	2	1	216	0	6	6	1	503	1	"onaardig"	1	1
"489"	4	"v"	105	4	1	1	2	216	1	5	5	1	453	6	"liefhebbend"	0	4
"490"	4	"v"	106	4	1	1	2	216	0	6	6	1	565	33	"humeurig"	0	4
"491"	4	"v"	107	4	1	1	2	216	1	5	5	1	639	1	"vriendelijk"	0	4
"492"	4	"v"	108	4	1	1	6	216	1	5	5	1	453	1	"vriendelijk"	1	1
"493"	4	"v"	109	4	1	2	3	216	1	5	5	1	394	1	"aangenaam"	0	3
"494"	4	"v"	110	4	1	2	3	216	0	6	6	1	581	6	"stug"	0	3
"495"	4	"v"	111	4	1	2	1	216	1	5	5	1	515	7	"mooi"	1	1
"496"	4	"v"	112	4	1	1	7	216	0	6	6	1	573	1	"onsympathiek"	0	4
"497"	4	"v"	113	4	1	2	5	216	1	5	5	1	511	22	"lief"	1	1
"498"	4	"v"	114	4	1	2	5	216	1	5	5	1	516	1	"sympathiek"	1	1
"499"	4	"v"	115	4	1	2	1	216	1	5	5	1	433	1	"sympathiek"	1	1
"500"	4	"v"	116	4	1	2	4	216	1	5	5	1	469	1	"vriendelijk"	0	2
"502"	4	"v"	118	4	1	1	6	216	1	5	5	1	700	1	"mooi"	1	1
"503"	4	"v"	119	4	1	1	2	216	1	5	5	1	464	7	"vriendelijk"	0	4
"504"	4	"v"	120	4	1	2	4	216	0	6	6	1	617	1	"irritant"	0	2
"505"	4	"v"	121	4	1	2	5	216	1	5	5	1	685	1	"sympathiek"	1	1
"506"	4	"v"	122	4	1	1	7	216	0	6	6	1	472	1	"onaardig"	0	4
"507"	4	"v"	123	4	1	2	5	216	1	5	5	1	463	1	"mooi"	1	1
"508"	4	"v"	124	4	1	2	3	216	1	5	5	1	548	7	"vriendelijk"	0	3
"509"	4	"v"	125	4	1	2	3	216	0	6	6	1	550	1	"onaardig"	0	3
"510"	4	"v"	126	4	1	1	6	216	0	6	6	1	533	1	"irritant"	1	1
"511"	4	"v"	127	4	1	2	5	216	0	6	6	1	482	6	"onaardig"	1	1
"512"	4	"v"	128	4	1	1	6	216	0	6	6	1	462	1	"stug"	1	1
"513"	5	"m"	1	1	1	1	0	216	1	5	5	1	542	1	"aangenaam"	0	4
"515"	5	"m"	3	1	1	2	4	216	1	5	5	1	437	7	"mooi"	0	4
"516"	5	"m"	4	1	1	2	3	216	0	6	6	1	569	1	"onsympathiek"	0	4
"517"	5	"m"	5	1	1	1	0	216	0	6	6	1	546	9	"onsympathiek"	0	4
"518"	5	"m"	6	1	1	1	0	216	0	6	6	1	451	1	"onvriendelijk"	0	4
"519"	5	"m"	7	1	1	2	3	216	1	5	5	1	449	1	"mooi"	0	4
"520"	5	"m"	8	1	1	2	5	216	1	5	5	1	409	7	"mooi"	0	4
"521"	5	"m"	9	1	1	1	1	216	1	5	5	1	381	1	"mooi"	0	4
"522"	5	"m"	10	1	1	2	3	216	0	6	6	1	483	1	"irritant"	0	4
"523"	5	"m"	11	1	1	2	4	216	1	5	5	1	495	9	"mooi"	0	4
"524"	5	"m"	12	1	1	1	7	216	1	5	5	1	462	7	"liefhebbend"	0	4
"525"	5	"m"	13	1	1	2	2	216	1	5	5	1	414	1	"vriendelijk"	0	4
"526"	5	"m"	14	1	1	1	1	216	0	6	6	1	497	1	"onvriendelijk"	0	4
"529"	5	"m"	17	1	1	2	4	216	0	6	6	1	565	7	"stug"	0	4
"530"	5	"m"	18	1	1	1	7	216	1	5	5	1	489	1	"vriendelijk"	0	4
"531"	5	"m"	19	1	1	1	0	216	0	6	6	1	479	7	"irritant"	0	4
"532"	5	"m"	20	1	1	2	3	216	1	5	5	1	515	1	"aangenaam"	0	4
"533"	5	"m"	21	1	1	1	7	216	1	5	5	1	401	6	"vriendelijk"	0	4
"535"	5	"m"	23	1	1	2	5	216	1	5	5	1	484	6	"mooi"	0	4
"536"	5	"m"	24	1	1	2	2	216	1	5	5	1	405	6	"vriendelijk"	0	4
"537"	5	"m"	25	1	1	1	1	216	0	6	6	1	669	1	"onsympathiek"	0	4
"538"	5	"m"	26	1	1	2	4	216	1	5	5	1	449	1	"liefhebbend"	0	4
"539"	5	"m"	27	1	1	1	6	216	0	6	6	1	552	1	"onsympathiek"	0	4
"540"	5	"m"	28	1	1	1	7	216	1	5	5	1	384	7	"sympathiek"	0	4
"541"	5	"m"	29	1	1	1	7	216	1	5	5	1	387	7	"vriendelijk"	0	4
"542"	5	"m"	30	1	1	2	3	216	1	5	5	1	421	7	"liefhebbend"	0	4
"543"	5	"m"	31	1	1	1	0	216	1	5	5	1	394	1	"lief"	0	4
"544"	5	"m"	32	1	1	1	6	216	0	6	6	1	410	1	"irritant"	0	4
"545"	5	"m"	33	2	1	2	5	216	0	6	6	1	442	1	"onvriendelijk"	0	4
"546"	5	"m"	34	2	1	2	5	216	0	6	6	1	446	7	"onsympathiek"	0	4
"547"	5	"m"	35	2	1	1	1	216	1	5	5	1	425	6	"sympathiek"	0	4
"548"	5	"m"	36	2	1	2	5	216	1	5	5	1	420	7	"lief"	0	4
"550"	5	"m"	38	2	1	1	0	216	0	6	6	1	419	6	"stug"	0	4
"551"	5	"m"	39	2	1	1	0	216	1	5	5	1	424	7	"mooi"	0	4
"552"	5	"m"	40	2	1	2	2	216	1	5	5	1	497	7	"liefhebbend"	0	4
"553"	5	"m"	41	2	1	2	4	216	1	5	5	1	512	1	"aangenaam"	0	4
"554"	5	"m"	42	2	1	2	2	216	0	6	6	1	465	1	"humeurig"	0	4
"555"	5	"m"	43	2	1	2	3	216	0	6	6	1	557	1	"humeurig"	0	4
"556"	5	"m"	44	2	1	2	5	216	0	6	6	1	427	1	"onaardig"	0	4
"558"	5	"m"	46	2	1	1	7	216	0	6	6	1	442	1	"irritant"	0	4
"560"	5	"m"	48	2	1	1	6	216	0	6	6	1	382	7	"onvriendelijk"	0	4
"561"	5	"m"	49	2	1	2	5	216	1	5	5	1	493	1	"liefhebbend"	0	4
"563"	5	"m"	51	2	1	1	6	216	0	6	6	1	456	1	"onvriendelijk"	0	4
"564"	5	"m"	52	2	1	1	1	216	1	5	5	1	488	7	"aangenaam"	0	4
"565"	5	"m"	53	2	1	2	4	216	0	6	6	1	479	7	"onaardig"	0	4
"566"	5	"m"	54	2	1	2	5	216	0	6	6	1	441	6	"humeurig"	0	4
"567"	5	"m"	55	2	1	1	0	216	1	5	5	1	536	6	"mooi"	0	4
"568"	5	"m"	56	2	1	1	7	216	1	5	5	1	391	6	"aangenaam"	0	4
"569"	5	"m"	57	2	1	2	4	216	0	6	6	1	394	7	"onvriendelijk"	0	4
"570"	5	"m"	58	2	1	2	3	216	1	5	5	1	456	9	"mooi"	0	4
"571"	5	"m"	59	2	1	1	0	216	1	5	5	1	439	1	"liefhebbend"	0	4
"575"	5	"m"	63	2	1	2	5	216	0	6	6	1	409	8	"onsympathiek"	0	4
"576"	5	"m"	64	2	1	1	0	216	0	6	6	1	473	1	"irritant"	0	4
"578"	5	"m"	66	3	1	2	4	216	1	5	5	1	430	6	"sympathiek"	0	4
"579"	5	"m"	67	3	1	1	1	216	0	6	6	1	510	7	"humeurig"	0	4
"580"	5	"m"	68	3	1	1	1	216	1	5	5	1	396	6	"vriendelijk"	0	4
"581"	5	"m"	69	3	1	2	3	216	0	6	6	1	552	1	"humeurig"	0	4
"583"	5	"m"	71	3	1	2	2	216	0	6	6	1	628	1	"onsympathiek"	0	4
"584"	5	"m"	72	3	1	1	7	216	0	6	6	1	561	1	"stug"	0	4
"585"	5	"m"	73	3	1	2	5	216	1	5	5	1	541	7	"aangenaam"	0	4
"586"	5	"m"	74	3	1	2	3	216	0	6	6	1	542	1	"humeurig"	0	4
"587"	5	"m"	75	3	1	1	7	216	0	6	6	1	441	1	"onvriendelijk"	0	4
"588"	5	"m"	76	3	1	1	6	216	1	5	5	1	537	8	"vriendelijk"	0	4
"589"	5	"m"	77	3	1	1	7	216	1	5	5	1	515	1	"liefhebbend"	0	4
"592"	5	"m"	80	3	1	2	3	216	0	6	6	1	482	6	"onaardig"	0	4
"593"	5	"m"	81	3	1	2	4	216	1	5	5	1	500	1	"liefhebbend"	0	4
"594"	5	"m"	82	3	1	2	4	216	0	6	6	1	531	7	"onsympathiek"	0	4
"596"	5	"m"	84	3	1	1	7	216	0	6	6	1	411	1	"humeurig"	0	4
"597"	5	"m"	85	3	1	1	6	216	0	6	6	1	416	1	"humeurig"	0	4
"598"	5	"m"	86	3	1	2	5	216	0	6	6	1	418	1	"irritant"	0	4
"599"	5	"m"	87	3	1	1	0	216	0	6	6	1	467	7	"humeurig"	0	4
"600"	5	"m"	88	3	1	2	4	216	0	6	6	1	526	7	"onaardig"	0	4
"601"	5	"m"	89	3	1	2	3	216	1	5	5	1	497	7	"mooi"	0	4
"602"	5	"m"	90	3	1	1	1	216	1	5	5	1	505	1	"vriendelijk"	0	4
"603"	5	"m"	91	3	1	1	6	216	0	6	6	1	455	1	"stug"	0	4
"604"	5	"m"	92	3	1	2	4	216	0	6	6	1	502	7	"onaardig"	0	4
"606"	5	"m"	94	3	1	1	0	216	1	5	5	1	451	6	"mooi"	0	4
"607"	5	"m"	95	3	1	1	6	216	1	5	5	1	536	1	"aangenaam"	0	4
"608"	5	"m"	96	3	1	1	6	216	0	6	6	1	418	7	"onvriendelijk"	0	4
"609"	5	"m"	97	4	1	2	5	216	1	5	5	1	499	1	"liefhebbend"	0	4
"610"	5	"m"	98	4	1	2	3	216	1	5	5	1	431	1	"vriendelijk"	0	4
"611"	5	"m"	99	4	1	2	4	216	1	5	5	1	388	7	"liefhebbend"	0	4
"612"	5	"m"	100	4	1	1	0	216	1	5	5	1	396	7	"mooi"	0	4
"613"	5	"m"	101	4	1	2	3	216	1	5	5	1	388	7	"lief"	0	4
"615"	5	"m"	103	4	1	1	6	216	1	5	5	1	441	7	"vriendelijk"	0	4
"616"	5	"m"	104	4	1	1	6	216	0	6	6	1	418	1	"onaardig"	0	4
"617"	5	"m"	105	4	1	2	2	216	0	6	6	1	401	1	"stug"	0	4
"618"	5	"m"	106	4	1	2	5	216	1	5	5	1	372	1	"vriendelijk"	0	4
"619"	5	"m"	107	4	1	2	4	216	0	6	6	1	476	1	"humeurig"	0	4
"621"	5	"m"	109	4	1	1	1	216	0	6	6	1	417	1	"irritant"	0	4
"622"	5	"m"	110	4	1	2	2	216	1	5	5	1	488	1	"aangenaam"	0	4
"623"	5	"m"	111	4	1	1	6	216	1	5	5	1	584	1	"lief"	0	4
"624"	5	"m"	112	4	1	1	1	216	0	6	6	1	436	9	"onvriendelijk"	0	4
"625"	5	"m"	113	4	1	1	0	216	0	6	6	1	397	7	"onsympathiek"	0	4
"626"	5	"m"	114	4	1	1	6	216	1	5	5	1	448	1	"liefhebbend"	0	4
"627"	5	"m"	115	4	1	1	1	216	0	6	6	1	476	1	"onaardig"	0	4
"628"	5	"m"	116	4	1	2	5	216	0	6	6	1	462	7	"onaardig"	0	4
"629"	5	"m"	117	4	1	1	7	216	0	6	6	1	396	1	"onvriendelijk"	0	4
"630"	5	"m"	118	4	1	1	1	216	0	6	6	1	383	7	"onvriendelijk"	0	4
"631"	5	"m"	119	4	1	2	4	216	1	5	5	1	365	7	"lief"	0	4
"633"	5	"m"	121	4	1	1	7	216	0	6	6	1	340	7	"onaardig"	0	4
"634"	5	"m"	122	4	1	1	1	216	1	5	5	1	422	1	"aangenaam"	0	4
"635"	5	"m"	123	4	1	2	2	216	1	5	5	1	400	6	"liefhebbend"	0	4
"637"	5	"m"	125	4	1	1	6	216	1	5	5	1	424	7	"liefhebbend"	0	4
"638"	5	"m"	126	4	1	1	1	216	1	5	5	1	383	7	"mooi"	0	4
"639"	5	"m"	127	4	1	2	5	216	0	6	6	1	541	1	"stug"	0	4
"640"	5	"m"	128	4	1	2	2	216	1	5	5	1	446	6	"liefhebbend"	0	4
"642"	6	"v"	2	1	2	1	0	216	0	5	5	1	633	6	"irritant"	0	2
"644"	6	"v"	4	1	2	1	0	216	1	6	6	1	505	9	"sympathiek"	0	2
"645"	6	"v"	5	1	2	1	0	216	0	5	5	1	559	7	"irritant"	0	2
"646"	6	"v"	6	1	2	2	5	216	1	6	6	1	457	7	"mooi"	1	1
"647"	6	"v"	7	1	2	1	7	216	0	5	5	1	549	6	"onaardig"	1	1
"648"	6	"v"	8	1	2	1	7	216	1	6	6	1	465	1	"sympathiek"	1	1
"649"	6	"v"	9	1	2	2	4	216	0	5	5	1	746	1	"onvriendelijk"	1	1
"650"	6	"v"	10	1	2	1	6	216	1	6	6	1	481	1	"lief"	1	1
"651"	6	"v"	11	1	2	2	2	216	1	6	6	1	548	10	"liefhebbend"	1	1
"653"	6	"v"	13	1	2	1	1	216	0	5	5	1	587	1	"irritant"	1	1
"654"	6	"v"	14	1	2	1	6	216	0	5	5	1	661	1	"onvriendelijk"	1	1
"655"	6	"v"	15	1	2	2	5	216	0	5	5	1	651	1	"stug"	1	1
"656"	6	"v"	16	1	2	2	2	216	0	5	5	1	615	1	"onaardig"	1	1
"657"	6	"v"	17	1	2	1	1	216	0	5	5	1	662	7	"onsympathiek"	1	1
"658"	6	"v"	18	1	2	1	7	216	0	5	5	1	530	1	"onsympathiek"	1	1
"659"	6	"v"	19	1	2	2	3	216	1	6	6	1	629	7	"lief"	1	1
"660"	6	"v"	20	1	2	1	0	216	1	6	6	1	455	1	"vriendelijk"	0	2
"661"	6	"v"	21	1	2	1	1	216	0	5	5	1	723	1	"humeurig"	1	1
"662"	6	"v"	22	1	2	1	1	216	0	5	5	1	536	1	"irritant"	1	1
"663"	6	"v"	23	1	2	2	2	216	0	5	5	1	601	6	"humeurig"	1	1
"664"	6	"v"	24	1	2	1	6	216	1	6	6	1	494	1	"sympathiek"	1	1
"665"	6	"v"	25	1	2	1	6	216	0	5	5	1	535	6	"onaardig"	1	1
"666"	6	"v"	26	1	2	1	0	216	0	5	5	1	556	1	"onvriendelijk"	0	2
"667"	6	"v"	27	1	2	1	1	216	1	6	6	1	629	6	"aangenaam"	1	1
"668"	6	"v"	28	1	2	1	0	216	0	5	5	1	548	7	"irritant"	0	2
"669"	6	"v"	29	1	2	2	2	216	0	5	5	1	516	1	"irritant"	1	1
"670"	6	"v"	30	1	2	2	2	216	0	5	5	1	494	1	"onaardig"	1	1
"671"	6	"v"	31	1	2	1	1	216	1	6	6	1	561	1	"aangenaam"	1	1
"672"	6	"v"	32	1	2	2	2	216	1	6	6	1	576	1	"liefhebbend"	1	1
"673"	6	"v"	33	2	2	2	5	216	0	5	5	1	711	7	"onvriendelijk"	1	1
"674"	6	"v"	34	2	2	2	5	216	0	5	5	1	709	1	"humeurig"	1	1
"675"	6	"v"	35	2	2	1	6	216	1	6	6	1	444	1	"aangenaam"	1	1
"676"	6	"v"	36	2	2	2	5	216	0	5	5	1	558	7	"onvriendelijk"	1	1
"677"	6	"v"	37	2	2	2	3	216	1	6	6	1	479	10	"aangenaam"	1	1
"678"	6	"v"	38	2	2	2	3	216	1	6	6	1	394	1	"vriendelijk"	1	1
"679"	6	"v"	39	2	2	2	2	216	1	6	6	1	421	1	"liefhebbend"	1	1
"680"	6	"v"	40	2	2	2	4	216	0	5	5	1	473	1	"irritant"	1	1
"681"	6	"v"	41	2	2	2	3	216	1	6	6	1	590	10	"sympathiek"	1	1
"682"	6	"v"	42	2	2	2	2	216	0	5	5	1	538	1	"onvriendelijk"	1	1
"683"	6	"v"	43	2	2	2	5	216	0	5	5	1	474	6	"irritant"	1	1
"684"	6	"v"	44	2	2	2	3	216	0	5	5	1	481	1	"irritant"	1	1
"685"	6	"v"	45	2	2	2	2	216	1	6	6	1	493	7	"vriendelijk"	1	1
"686"	6	"v"	46	2	2	2	4	216	0	5	5	1	670	1	"humeurig"	1	1
"687"	6	"v"	47	2	2	1	6	216	0	5	5	1	647	1	"stug"	1	1
"688"	6	"v"	48	2	2	2	2	216	0	5	5	1	575	9	"humeurig"	1	1
"689"	6	"v"	49	2	2	1	7	216	0	5	5	1	666	7	"onvriendelijk"	1	1
"690"	6	"v"	50	2	2	2	2	216	0	5	5	1	569	1	"onaardig"	1	1
"691"	6	"v"	51	2	2	1	1	216	0	5	5	1	398	1	"irritant"	1	1
"692"	6	"v"	52	2	2	1	7	216	0	5	5	1	519	6	"humeurig"	1	1
"693"	6	"v"	53	2	2	1	0	216	1	6	6	1	474	1	"aangenaam"	0	2
"694"	6	"v"	54	2	2	1	7	216	1	6	6	1	495	6	"mooi"	1	1
"695"	6	"v"	55	2	2	1	1	216	1	6	6	1	465	1	"aangenaam"	1	1
"696"	6	"v"	56	2	2	2	5	216	1	6	6	1	561	7	"liefhebbend"	1	1
"697"	6	"v"	57	2	2	2	2	216	1	6	6	1	544	8	"aangenaam"	1	1
"698"	6	"v"	58	2	2	2	5	216	1	6	6	1	509	7	"liefhebbend"	1	1
"699"	6	"v"	59	2	2	2	4	216	1	6	6	1	565	7	"lief"	1	1
"700"	6	"v"	60	2	2	1	1	216	0	5	5	1	634	1	"onsympathiek"	1	1
"701"	6	"v"	61	2	2	2	5	216	1	6	6	1	598	1	"liefhebbend"	1	1
"702"	6	"v"	62	2	2	2	4	216	1	6	6	1	481	1	"vriendelijk"	1	1
"703"	6	"v"	63	2	2	2	3	216	0	5	5	1	574	1	"stug"	1	1
"704"	6	"v"	64	2	2	2	3	216	0	5	5	1	616	1	"onsympathiek"	1	1
"705"	6	"v"	65	3	2	1	6	216	1	6	6	1	514	7	"aangenaam"	1	1
"706"	6	"v"	66	3	2	1	7	216	0	5	5	1	537	1	"onvriendelijk"	1	1
"707"	6	"v"	67	3	2	1	7	216	1	6	6	1	505	1	"vriendelijk"	1	1
"708"	6	"v"	68	3	2	2	5	216	0	5	5	1	644	1	"irritant"	1	1
"709"	6	"v"	69	3	2	1	6	216	0	5	5	1	515	1	"stug"	1	1
"711"	6	"v"	71	3	2	2	4	216	1	6	6	1	610	8	"aangenaam"	1	1
"712"	6	"v"	72	3	2	2	3	216	0	5	5	1	604	1	"irritant"	1	1
"713"	6	"v"	73	3	2	2	3	216	0	5	5	1	661	1	"humeurig"	1	1
"714"	6	"v"	74	3	2	1	1	216	1	6	6	1	530	1	"vriendelijk"	1	1
"715"	6	"v"	75	3	2	1	7	216	1	6	6	1	443	1	"vriendelijk"	1	1
"716"	6	"v"	76	3	2	1	7	216	1	6	6	1	408	1	"vriendelijk"	1	1
"717"	6	"v"	77	3	2	2	4	216	0	5	5	1	630	1	"onaardig"	1	1
"718"	6	"v"	78	3	2	1	7	216	1	6	6	1	539	1	"liefhebbend"	1	1
"719"	6	"v"	79	3	2	2	2	216	1	6	6	1	465	7	"mooi"	1	1
"720"	6	"v"	80	3	2	1	1	216	1	6	6	1	488	1	"sympathiek"	1	1
"722"	6	"v"	82	3	2	1	0	216	1	6	6	1	578	7	"lief"	0	2
"723"	6	"v"	83	3	2	2	3	216	1	6	6	1	534	1	"sympathiek"	1	1
"724"	6	"v"	84	3	2	1	0	216	1	6	6	1	485	6	"vriendelijk"	0	2
"725"	6	"v"	85	3	2	1	1	216	0	5	5	1	601	8	"humeurig"	1	1
"726"	6	"v"	86	3	2	1	0	216	1	6	6	1	465	7	"lief"	0	2
"727"	6	"v"	87	3	2	2	2	216	0	5	5	1	608	1	"irritant"	1	1
"728"	6	"v"	88	3	2	1	6	216	1	6	6	1	472	6	"vriendelijk"	1	1
"729"	6	"v"	89	3	2	2	3	216	1	6	6	1	533	1	"aangenaam"	1	1
"730"	6	"v"	90	3	2	2	4	216	1	6	6	1	535	6	"aangenaam"	1	1
"731"	6	"v"	91	3	2	2	5	216	0	5	5	1	621	9	"onsympathiek"	1	1
"732"	6	"v"	92	3	2	2	3	216	1	6	6	1	510	7	"mooi"	1	1
"733"	6	"v"	93	3	2	2	2	216	1	6	6	1	608	1	"lief"	1	1
"734"	6	"v"	94	3	2	1	7	216	0	5	5	1	581	7	"onaardig"	1	1
"735"	6	"v"	95	3	2	2	4	216	1	6	6	1	519	7	"aangenaam"	1	1
"736"	6	"v"	96	3	2	1	1	216	1	6	6	1	455	8	"mooi"	1	1
"737"	6	"v"	97	4	2	1	6	216	0	5	5	1	587	1	"onvriendelijk"	1	1
"738"	6	"v"	98	4	2	2	4	216	0	5	5	1	472	7	"onvriendelijk"	1	1
"739"	6	"v"	99	4	2	2	2	216	1	6	6	1	604	1	"liefhebbend"	1	1
"740"	6	"v"	100	4	2	1	7	216	1	6	6	1	557	1	"aangenaam"	1	1
"741"	6	"v"	101	4	2	2	5	216	1	6	6	1	474	1	"mooi"	1	1
"742"	6	"v"	102	4	2	1	1	216	0	5	5	1	586	1	"onvriendelijk"	1	1
"743"	6	"v"	103	4	2	1	6	216	0	5	5	1	562	6	"onvriendelijk"	1	1
"744"	6	"v"	104	4	2	2	5	216	0	5	5	1	654	1	"irritant"	1	1
"745"	6	"v"	105	4	2	1	7	216	0	5	5	1	560	10	"irritant"	1	1
"746"	6	"v"	106	4	2	2	4	216	0	5	5	1	596	1	"onsympathiek"	1	1
"747"	6	"v"	107	4	2	2	4	216	1	6	6	1	465	1	"mooi"	1	1
"748"	6	"v"	108	4	2	1	6	216	1	6	6	1	515	8	"aangenaam"	1	1
"749"	6	"v"	109	4	2	1	6	216	1	6	6	1	479	1	"vriendelijk"	1	1
"750"	6	"v"	110	4	2	2	3	216	0	5	5	1	571	7	"stug"	1	1
"751"	6	"v"	111	4	2	2	4	216	0	5	5	1	552	1	"irritant"	1	1
"752"	6	"v"	112	4	2	1	0	216	1	6	6	1	497	9	"vriendelijk"	0	2
"753"	6	"v"	113	4	2	1	7	216	0	5	5	1	578	1	"irritant"	1	1
"754"	6	"v"	114	4	2	1	0	216	0	5	5	1	592	6	"onsympathiek"	0	2
"755"	6	"v"	115	4	2	1	1	216	1	6	6	1	516	1	"vriendelijk"	1	1
"756"	6	"v"	116	4	2	2	4	216	1	6	6	1	560	1	"aangenaam"	1	1
"757"	6	"v"	117	4	2	1	6	216	0	5	5	1	640	6	"onvriendelijk"	1	1
"758"	6	"v"	118	4	2	2	4	216	1	6	6	1	586	1	"lief"	1	1
"759"	6	"v"	119	4	2	1	6	216	1	6	6	1	471	1	"vriendelijk"	1	1
"760"	6	"v"	120	4	2	1	6	216	0	5	5	1	577	1	"irritant"	1	1
"761"	6	"v"	121	4	2	2	5	216	1	6	6	1	519	1	"aangenaam"	1	1
"762"	6	"v"	122	4	2	1	0	216	0	5	5	1	600	1	"stug"	0	2
"763"	6	"v"	123	4	2	1	7	216	1	6	6	1	497	7	"aangenaam"	1	1
"764"	6	"v"	124	4	2	2	4	216	0	5	5	1	660	8	"onsympathiek"	1	1
"765"	6	"v"	125	4	2	1	0	216	0	5	5	1	717	1	"humeurig"	0	2
"766"	6	"v"	126	4	2	2	3	216	0	5	5	1	604	11	"onsympathiek"	1	1
"767"	6	"v"	127	4	2	2	3	216	1	6	6	1	530	1	"mooi"	1	1
"768"	6	"v"	128	4	2	1	0	216	1	6	6	1	564	7	"liefhebbend"	0	2
"771"	7	"m"	3	1	2	1	0	216	1	6	6	1	763	7	"liefhebbend"	0	3
"772"	7	"m"	4	1	2	1	5	216	1	6	6	1	793	6	"lief"	0	4
"773"	7	"m"	5	1	2	1	2	216	0	5	5	1	668	1	"onvriendelijk"	0	4
"774"	7	"m"	6	1	2	1	5	216	1	6	6	1	441	1	"mooi"	0	4
"775"	7	"m"	7	1	2	2	6	216	1	6	6	1	645	1	"mooi"	0	4
"776"	7	"m"	8	1	2	2	4	216	0	5	5	1	732	7	"irritant"	0	2
"777"	7	"m"	9	1	2	2	6	216	0	5	5	1	821	1	"onvriendelijk"	0	4
"778"	7	"m"	10	1	2	2	4	216	1	6	6	1	780	7	"liefhebbend"	0	2
"779"	7	"m"	11	1	2	2	3	216	0	5	5	1	554	1	"onvriendelijk"	1	1
"780"	7	"m"	12	1	2	2	4	216	1	6	6	1	822	6	"vriendelijk"	0	2
"781"	7	"m"	13	1	2	2	6	216	0	5	5	1	546	7	"onsympathiek"	0	4
"782"	7	"m"	14	1	2	2	4	216	1	6	6	1	554	6	"liefhebbend"	0	2
"783"	7	"m"	15	1	2	1	5	216	1	6	6	1	535	8	"lief"	0	4
"784"	7	"m"	16	1	2	1	2	216	0	5	5	1	631	1	"onsympathiek"	0	4
"785"	7	"m"	17	1	2	1	7	216	0	5	5	1	678	7	"onsympathiek"	0	3
"786"	7	"m"	18	1	2	1	2	216	0	5	5	1	564	1	"onvriendelijk"	0	4
"787"	7	"m"	19	1	2	1	5	216	0	5	5	1	493	6	"onvriendelijk"	0	4
"788"	7	"m"	20	1	2	2	1	216	0	5	5	1	674	9	"stug"	0	2
"789"	7	"m"	21	1	2	2	4	216	0	5	5	1	601	7	"stug"	0	2
"790"	7	"m"	22	1	2	2	6	216	0	5	5	1	508	1	"stug"	0	4
"791"	7	"m"	23	1	2	2	1	216	1	6	6	1	704	1	"vriendelijk"	0	2
"792"	7	"m"	24	1	2	2	1	216	1	6	6	1	862	7	"sympathiek"	0	2
"793"	7	"m"	25	1	2	1	0	216	1	6	6	1	645	1	"sympathiek"	0	3
"794"	7	"m"	26	1	2	2	6	216	1	6	6	1	621	7	"liefhebbend"	0	4
"795"	7	"m"	27	1	2	2	1	216	0	5	5	1	873	7	"onaardig"	0	2
"796"	7	"m"	28	1	2	2	4	216	1	6	6	1	684	1	"liefhebbend"	0	2
"797"	7	"m"	29	1	2	2	3	216	0	5	5	1	888	7	"onaardig"	1	1
"798"	7	"m"	30	1	2	1	0	216	1	6	6	1	736	1	"aangenaam"	0	3
"799"	7	"m"	31	1	2	2	4	216	1	6	6	1	627	7	"sympathiek"	0	2
"800"	7	"m"	32	1	2	1	5	216	0	5	5	1	722	1	"stug"	0	4
"801"	7	"m"	33	2	2	1	0	216	0	5	5	1	961	6	"onsympathiek"	0	3
"803"	7	"m"	35	2	2	2	3	216	1	6	6	1	781	7	"liefhebbend"	1	1
"804"	7	"m"	36	2	2	1	0	216	1	6	6	1	564	7	"liefhebbend"	0	3
"805"	7	"m"	37	2	2	2	3	216	1	6	6	1	469	7	"liefhebbend"	1	1
"806"	7	"m"	38	2	2	1	0	216	0	5	5	1	642	6	"irritant"	0	3
"807"	7	"m"	39	2	2	1	7	216	1	6	6	1	620	7	"aangenaam"	0	3
"808"	7	"m"	40	2	2	1	2	216	1	6	6	1	686	1	"sympathiek"	0	4
"809"	7	"m"	41	2	2	2	6	216	0	5	5	1	612	6	"irritant"	0	4
"810"	7	"m"	42	2	2	2	3	216	1	6	6	1	699	7	"sympathiek"	1	1
"811"	7	"m"	43	2	2	2	3	216	1	6	6	1	729	1	"lief"	1	1
"812"	7	"m"	44	2	2	2	4	216	0	5	5	1	703	6	"onaardig"	0	2
"813"	7	"m"	45	2	2	2	1	216	0	5	5	1	571	1	"onaardig"	0	2
"815"	7	"m"	47	2	2	2	6	216	1	6	6	1	568	7	"aangenaam"	0	4
"816"	7	"m"	48	2	2	2	4	216	1	6	6	1	536	1	"sympathiek"	0	2
"817"	7	"m"	49	2	2	1	7	216	1	6	6	1	530	1	"liefhebbend"	0	3
"818"	7	"m"	50	2	2	2	1	216	1	6	6	1	734	7	"vriendelijk"	0	2
"819"	7	"m"	51	2	2	1	0	216	1	6	6	1	584	7	"lief"	0	3
"820"	7	"m"	52	2	2	2	6	216	1	6	6	1	647	1	"vriendelijk"	0	4
"821"	7	"m"	53	2	2	2	1	216	1	6	6	1	847	7	"mooi"	0	2
"822"	7	"m"	54	2	2	1	5	216	0	5	5	1	666	1	"stug"	0	4
"823"	7	"m"	55	2	2	2	3	216	0	5	5	1	777	1	"onsympathiek"	1	1
"826"	7	"m"	58	2	2	1	7	216	0	5	5	1	759	7	"humeurig"	0	3
"827"	7	"m"	59	2	2	2	1	216	0	5	5	1	645	1	"onaardig"	0	2
"828"	7	"m"	60	2	2	2	4	216	1	6	6	1	512	1	"mooi"	0	2
"829"	7	"m"	61	2	2	1	2	216	1	6	6	1	801	6	"aangenaam"	0	4
"830"	7	"m"	62	2	2	2	6	216	0	5	5	1	735	1	"onvriendelijk"	0	4
"831"	7	"m"	63	2	2	1	5	216	1	6	6	1	617	1	"liefhebbend"	0	4
"832"	7	"m"	64	2	2	1	0	216	0	5	5	1	708	7	"onsympathiek"	0	3
"833"	7	"m"	65	3	2	2	4	216	0	5	5	1	850	1	"humeurig"	0	2
"834"	7	"m"	66	3	2	1	7	216	1	6	6	1	781	7	"aangenaam"	0	3
"835"	7	"m"	67	3	2	2	1	216	1	6	6	1	524	10	"aangenaam"	0	2
"836"	7	"m"	68	3	2	1	7	216	1	6	6	1	540	1	"lief"	0	3
"837"	7	"m"	69	3	2	1	0	216	1	6	6	1	492	7	"vriendelijk"	0	3
"838"	7	"m"	70	3	2	1	5	216	1	6	6	1	440	8	"sympathiek"	0	4
"840"	7	"m"	72	3	2	2	1	216	0	5	5	1	608	1	"onsympathiek"	0	2
"841"	7	"m"	73	3	2	1	2	216	1	6	6	1	542	1	"vriendelijk"	0	4
"842"	7	"m"	74	3	2	1	2	216	0	5	5	1	759	1	"humeurig"	0	4
"843"	7	"m"	75	3	2	1	7	216	0	5	5	1	836	1	"onvriendelijk"	0	3
"844"	7	"m"	76	3	2	1	5	216	1	6	6	1	643	7	"vriendelijk"	0	4
"845"	7	"m"	77	3	2	2	4	216	1	6	6	1	518	1	"liefhebbend"	0	2
"846"	7	"m"	78	3	2	1	7	216	1	6	6	1	453	1	"lief"	0	3
"847"	7	"m"	79	3	2	2	1	216	1	6	6	1	504	7	"sympathiek"	0	2
"848"	7	"m"	80	3	2	2	3	216	1	6	6	1	447	6	"mooi"	1	1
"850"	7	"m"	82	3	2	1	5	216	0	5	5	1	595	1	"stug"	0	4
"851"	7	"m"	83	3	2	1	7	216	1	6	6	1	450	1	"vriendelijk"	0	3
"852"	7	"m"	84	3	2	2	4	216	0	5	5	1	670	7	"onaardig"	0	2
"853"	7	"m"	85	3	2	1	0	216	0	5	5	1	553	1	"onvriendelijk"	0	3
"854"	7	"m"	86	3	2	2	3	216	0	5	5	1	572	6	"onaardig"	1	1
"855"	7	"m"	87	3	2	1	2	216	0	5	5	1	565	1	"onsympathiek"	0	4
"856"	7	"m"	88	3	2	2	3	216	0	5	5	1	659	7	"onsympathiek"	1	1
"857"	7	"m"	89	3	2	2	4	216	0	5	5	1	576	1	"onsympathiek"	0	2
"858"	7	"m"	90	3	2	1	0	216	0	5	5	1	501	1	"onaardig"	0	3
"859"	7	"m"	91	3	2	2	3	216	0	5	5	1	501	6	"stug"	1	1
"861"	7	"m"	93	3	2	1	0	216	0	5	5	1	557	1	"irritant"	0	3
"862"	7	"m"	94	3	2	1	0	216	1	6	6	1	594	7	"mooi"	0	3
"863"	7	"m"	95	3	2	1	2	216	0	5	5	1	816	1	"stug"	0	4
"864"	7	"m"	96	3	2	2	1	216	0	5	5	1	568	1	"stug"	0	2
"865"	7	"m"	97	4	2	1	2	216	0	5	5	1	598	6	"irritant"	0	4
"866"	7	"m"	98	4	2	2	3	216	0	5	5	1	670	1	"onvriendelijk"	1	1
"867"	7	"m"	99	4	2	1	5	216	1	6	6	1	526	6	"mooi"	0	4
"868"	7	"m"	100	4	2	2	1	216	1	6	6	1	524	1	"aangenaam"	0	2
"869"	7	"m"	101	4	2	2	6	216	0	5	5	1	606	7	"onaardig"	0	4
"870"	7	"m"	102	4	2	1	0	216	1	6	6	1	863	1	"aangenaam"	0	3
"871"	7	"m"	103	4	2	2	1	216	1	6	6	1	495	7	"lief"	0	2
"872"	7	"m"	104	4	2	2	6	216	0	5	5	1	673	6	"stug"	0	4
"873"	7	"m"	105	4	2	2	3	216	1	6	6	1	606	7	"aangenaam"	1	1
"874"	7	"m"	106	4	2	2	6	216	1	6	6	1	662	7	"lief"	0	4
"875"	7	"m"	107	4	2	1	5	216	1	6	6	1	718	1	"sympathiek"	0	4
"876"	7	"m"	108	4	2	2	3	216	0	5	5	1	615	7	"onaardig"	1	1
"877"	7	"m"	109	4	2	1	7	216	0	5	5	1	650	1	"onaardig"	0	3
"878"	7	"m"	110	4	2	2	3	216	1	6	6	1	690	7	"vriendelijk"	1	1
"879"	7	"m"	111	4	2	2	3	216	1	6	6	1	877	1	"lief"	1	1
"880"	7	"m"	112	4	2	1	2	216	1	6	6	1	481	8	"mooi"	0	4
"881"	7	"m"	113	4	2	1	7	216	0	5	5	1	541	1	"irritant"	0	3
"882"	7	"m"	114	4	2	1	2	216	1	6	6	1	691	1	"sympathiek"	0	4
"883"	7	"m"	115	4	2	1	2	216	1	6	6	1	699	8	"liefhebbend"	0	4
"884"	7	"m"	116	4	2	2	6	216	1	6	6	1	625	6	"aangenaam"	0	4
"885"	7	"m"	117	4	2	2	1	216	0	5	5	1	807	1	"irritant"	0	2
"886"	7	"m"	118	4	2	2	4	216	0	5	5	1	707	1	"onaardig"	0	2
"887"	7	"m"	119	4	2	2	6	216	1	6	6	1	697	6	"sympathiek"	0	4
"888"	7	"m"	120	4	2	2	6	216	1	6	6	1	532	7	"mooi"	0	4
"889"	7	"m"	121	4	2	1	7	216	0	5	5	1	692	7	"irritant"	0	3
"891"	7	"m"	123	4	2	1	2	216	1	6	6	1	543	1	"liefhebbend"	0	4
"892"	7	"m"	124	4	2	1	5	216	0	5	5	1	640	1	"irritant"	0	4
"893"	7	"m"	125	4	2	1	7	216	0	5	5	1	526	1	"irritant"	0	3
"894"	7	"m"	126	4	2	1	7	216	1	6	6	1	538	1	"mooi"	0	3
"895"	7	"m"	127	4	2	1	7	216	0	5	5	1	602	6	"humeurig"	0	3
"896"	7	"m"	128	4	2	1	7	216	1	6	6	1	538	1	"mooi"	0	3
"897"	8	"v"	1	1	1	1	7	216	0	6	6	1	863	1	"onaardig"	1	1
"898"	8	"v"	2	1	1	2	6	216	0	6	6	1	580	1	"irritant"	0	2
"900"	8	"v"	4	1	1	2	4	216	0	6	6	1	620	7	"onsympathiek"	0	2
"901"	8	"v"	5	1	1	2	3	216	0	6	6	1	486	6	"onaardig"	1	1
"903"	8	"v"	7	1	1	1	5	216	0	6	6	1	761	7	"onaardig"	0	4
"904"	8	"v"	8	1	1	2	1	216	0	6	6	1	519	1	"onaardig"	1	1
"905"	8	"v"	9	1	1	2	6	216	0	6	6	1	640	7	"humeurig"	0	2
"906"	8	"v"	10	1	1	2	6	216	1	5	5	1	617	7	"vriendelijk"	0	2
"907"	8	"v"	11	1	1	2	3	216	0	6	6	1	565	1	"onvriendelijk"	1	1
"908"	8	"v"	12	1	1	2	1	216	0	6	6	1	663	1	"onaardig"	1	1
"909"	8	"v"	13	1	1	2	1	216	0	6	6	1	653	1	"irritant"	1	1
"910"	8	"v"	14	1	1	1	2	216	0	6	6	1	884	1	"stug"	1	3
"911"	8	"v"	15	1	1	2	4	216	1	5	5	1	727	7	"liefhebbend"	0	2
"912"	8	"v"	16	1	1	1	2	216	0	6	6	1	629	7	"onsympathiek"	1	3
"913"	8	"v"	17	1	1	1	7	216	0	6	6	1	419	8	"irritant"	1	1
"914"	8	"v"	18	1	1	1	0	216	0	6	6	1	540	1	"stug"	1	1
"915"	8	"v"	19	1	1	1	0	216	0	6	6	1	424	1	"stug"	1	1
"916"	8	"v"	20	1	1	1	5	216	0	6	6	1	542	1	"onaardig"	0	4
"917"	8	"v"	21	1	1	2	1	216	0	6	6	1	421	7	"onaardig"	1	1
"918"	8	"v"	22	1	1	1	5	216	1	5	5	1	451	7	"vriendelijk"	0	4
"919"	8	"v"	23	1	1	1	5	216	1	5	5	1	690	1	"sympathiek"	0	4
"920"	8	"v"	24	1	1	1	2	216	1	5	5	1	606	1	"aangenaam"	1	3
"921"	8	"v"	25	1	1	1	0	216	1	5	5	1	439	7	"mooi"	1	1
"922"	8	"v"	26	1	1	1	5	216	1	5	5	1	472	1	"sympathiek"	0	4
"923"	8	"v"	27	1	1	2	3	216	0	6	6	1	534	1	"irritant"	1	1
"924"	8	"v"	28	1	1	2	1	216	0	6	6	1	546	1	"onsympathiek"	1	1
"926"	8	"v"	30	1	1	2	6	216	0	6	6	1	605	1	"onaardig"	0	2
"927"	8	"v"	31	1	1	1	2	216	1	5	5	1	571	1	"vriendelijk"	1	3
"928"	8	"v"	32	1	1	2	4	216	1	5	5	1	873	28	"sympathiek"	0	2
"929"	8	"v"	33	2	1	1	5	216	1	5	5	1	448	7	"sympathiek"	0	4
"930"	8	"v"	34	2	1	1	7	216	1	5	5	1	601	1	"aangenaam"	1	1
"931"	8	"v"	35	2	1	1	7	216	0	6	6	1	550	10	"onsympathiek"	1	1
"932"	8	"v"	36	2	1	1	2	216	0	6	6	1	484	7	"stug"	1	3
"933"	8	"v"	37	2	1	1	7	216	1	5	5	1	503	1	"lief"	1	1
"934"	8	"v"	38	2	1	1	2	216	1	5	5	1	426	7	"lief"	1	3
"935"	8	"v"	39	2	1	1	2	216	1	5	5	1	535	1	"sympathiek"	1	3
"936"	8	"v"	40	2	1	1	2	216	1	5	5	1	430	7	"sympathiek"	1	3
"937"	8	"v"	41	2	1	2	3	216	1	5	5	1	414	7	"vriendelijk"	1	1
"938"	8	"v"	42	2	1	2	3	216	1	5	5	1	500	1	"mooi"	1	1
"939"	8	"v"	43	2	1	2	4	216	1	5	5	1	338	7	"mooi"	0	2
"940"	8	"v"	44	2	1	2	6	216	1	5	5	1	404	1	"vriendelijk"	0	2
"941"	8	"v"	45	2	1	2	4	216	0	6	6	1	622	2	"stug"	0	2
"942"	8	"v"	46	2	1	2	3	216	1	5	5	1	584	6	"vriendelijk"	1	1
"943"	8	"v"	47	2	1	1	0	216	0	6	6	1	618	1	"stug"	1	1
"944"	8	"v"	48	2	1	1	5	216	0	6	6	1	727	1	"onaardig"	0	4
"945"	8	"v"	49	2	1	2	3	216	0	6	6	1	459	1	"onaardig"	1	1
"946"	8	"v"	50	2	1	2	3	216	0	6	6	1	363	6	"onaardig"	1	1
"947"	8	"v"	51	2	1	2	1	216	1	5	5	1	877	6	"sympathiek"	1	1
"948"	8	"v"	52	2	1	2	4	216	1	5	5	1	522	1	"lief"	0	2
"950"	8	"v"	54	2	1	2	3	216	0	6	6	1	741	1	"onvriendelijk"	1	1
"951"	8	"v"	55	2	1	2	4	216	0	6	6	1	521	7	"onsympathiek"	0	2
"953"	8	"v"	57	2	1	1	5	216	1	5	5	1	608	1	"aangenaam"	0	4
"954"	8	"v"	58	2	1	1	7	216	1	5	5	1	427	9	"aangenaam"	1	1
"955"	8	"v"	59	2	1	2	3	216	1	5	5	1	513	28	"lief"	1	1
"956"	8	"v"	60	2	1	1	7	216	1	5	5	1	659	1	"liefhebbend"	1	1
"957"	8	"v"	61	2	1	1	7	216	1	5	5	1	460	7	"liefhebbend"	1	1
"958"	8	"v"	62	2	1	1	7	216	1	5	5	1	535	1	"sympathiek"	1	1
"959"	8	"v"	63	2	1	2	4	216	0	6	6	1	612	6	"onaardig"	0	2
"960"	8	"v"	64	2	1	2	6	216	1	5	5	1	539	1	"aangenaam"	0	2
"961"	8	"v"	65	3	1	2	1	216	1	5	5	1	528	1	"vriendelijk"	1	1
"962"	8	"v"	66	3	1	1	5	216	1	5	5	1	533	1	"liefhebbend"	0	4
"963"	8	"v"	67	3	1	1	0	216	1	5	5	1	609	8	"mooi"	1	1
"964"	8	"v"	68	3	1	1	0	216	0	6	6	1	523	29	"onaardig"	1	1
"965"	8	"v"	69	3	1	2	3	216	1	5	5	1	542	7	"lief"	1	1
"966"	8	"v"	70	3	1	2	3	216	1	5	5	1	607	7	"aangenaam"	1	1
"967"	8	"v"	71	3	1	1	2	216	0	6	6	1	562	1	"irritant"	1	3
"971"	8	"v"	75	3	1	2	4	216	1	5	5	1	666	7	"vriendelijk"	0	2
"973"	8	"v"	77	3	1	1	0	216	1	5	5	1	487	1	"mooi"	1	1
"974"	8	"v"	78	3	1	2	1	216	1	5	5	1	659	1	"liefhebbend"	1	1
"975"	8	"v"	79	3	1	1	5	216	0	6	6	1	785	1	"humeurig"	0	4
"976"	8	"v"	80	3	1	2	4	216	0	6	6	1	583	23	"irritant"	0	2
"977"	8	"v"	81	3	1	1	2	216	0	6	6	1	658	7	"humeurig"	1	3
"978"	8	"v"	82	3	1	2	1	216	1	5	5	1	549	1	"vriendelijk"	1	1
"979"	8	"v"	83	3	1	2	6	216	1	5	5	1	611	1	"sympathiek"	0	2
"980"	8	"v"	84	3	1	1	7	216	0	6	6	1	667	6	"onaardig"	1	1
"981"	8	"v"	85	3	1	2	6	216	0	6	6	1	598	6	"stug"	0	2
"982"	8	"v"	86	3	1	1	7	216	1	5	5	1	708	7	"sympathiek"	1	1
"983"	8	"v"	87	3	1	2	3	216	0	6	6	1	587	29	"irritant"	1	1
"984"	8	"v"	88	3	1	1	0	216	0	6	6	1	664	1	"onvriendelijk"	1	1
"985"	8	"v"	89	3	1	2	6	216	1	5	5	1	700	1	"vriendelijk"	0	2
"986"	8	"v"	90	3	1	2	1	216	0	6	6	1	515	7	"stug"	1	1
"987"	8	"v"	91	3	1	1	0	216	1	5	5	1	522	7	"lief"	1	1
"988"	8	"v"	92	3	1	1	7	216	0	6	6	1	760	1	"onvriendelijk"	1	1
"989"	8	"v"	93	3	1	2	1	216	1	5	5	1	576	1	"lief"	1	1
"990"	8	"v"	94	3	1	1	5	216	0	6	6	1	643	7	"onsympathiek"	0	4
"991"	8	"v"	95	3	1	2	1	216	0	6	6	1	543	1	"irritant"	1	1
"992"	8	"v"	96	3	1	1	0	216	0	6	6	1	608	1	"humeurig"	1	1
"993"	8	"v"	97	4	1	1	0	216	1	5	5	1	558	7	"aangenaam"	1	1
"994"	8	"v"	98	4	1	1	0	216	0	6	6	1	565	1	"onaardig"	1	1
"995"	8	"v"	99	4	1	2	6	216	0	6	6	1	395	1	"irritant"	0	2
"996"	8	"v"	100	4	1	1	2	216	1	5	5	1	523	1	"aangenaam"	1	3
"997"	8	"v"	101	4	1	2	6	216	0	6	6	1	492	7	"stug"	0	2
"998"	8	"v"	102	4	1	2	1	216	0	6	6	1	411	1	"stug"	1	1
"999"	8	"v"	103	4	1	2	4	216	1	5	5	1	503	7	"liefhebbend"	0	2
"1000"	8	"v"	104	4	1	1	5	216	0	6	6	1	529	1	"irritant"	0	4
"1001"	8	"v"	105	4	1	2	6	216	1	5	5	1	590	1	"sympathiek"	0	2
"1002"	8	"v"	106	4	1	1	5	216	1	5	5	1	509	7	"mooi"	0	4
"1003"	8	"v"	107	4	1	1	0	216	1	5	5	1	463	1	"vriendelijk"	1	1
"1004"	8	"v"	108	4	1	1	5	216	0	6	6	1	529	6	"stug"	0	4
"1005"	8	"v"	109	4	1	1	0	216	0	6	6	1	521	1	"humeurig"	1	1
"1006"	8	"v"	110	4	1	1	2	216	1	5	5	1	723	1	"liefhebbend"	1	3
"1007"	8	"v"	111	4	1	2	4	216	0	6	6	1	587	6	"onaardig"	0	2
"1008"	8	"v"	112	4	1	1	7	216	1	5	5	1	538	1	"lief"	1	1
"1010"	8	"v"	114	4	1	1	7	216	0	6	6	1	478	1	"humeurig"	1	1
"1011"	8	"v"	115	4	1	2	1	216	1	5	5	1	691	1	"sympathiek"	1	1
"1012"	8	"v"	116	4	1	2	3	216	0	6	6	1	782	22	"onvriendelijk"	1	1
"1013"	8	"v"	117	4	1	2	6	216	1	5	5	1	591	1	"mooi"	0	2
"1015"	8	"v"	119	4	1	1	2	216	1	5	5	1	571	1	"aangenaam"	1	3
"1016"	8	"v"	120	4	1	2	6	216	1	5	5	1	517	1	"aangenaam"	0	2
"1017"	8	"v"	121	4	1	2	3	216	1	5	5	1	551	1	"lief"	1	1
"1018"	8	"v"	122	4	1	1	2	216	0	6	6	1	491	7	"stug"	1	3
"1019"	8	"v"	123	4	1	2	1	216	1	5	5	1	533	1	"liefhebbend"	1	1
"1020"	8	"v"	124	4	1	1	2	216	0	6	6	1	449	7	"stug"	1	3
"1021"	8	"v"	125	4	1	2	4	216	1	5	5	1	463	7	"mooi"	0	2
"1022"	8	"v"	126	4	1	2	4	216	1	5	5	1	467	1	"aangenaam"	0	2
"1023"	8	"v"	127	4	1	1	5	216	1	5	5	1	515	1	"sympathiek"	0	4
"1024"	8	"v"	128	4	1	2	3	216	1	5	5	1	606	7	"aangenaam"	1	1
"1025"	9	"v"	1	1	1	1	3	216	1	5	5	1	536	1	"liefhebbend"	1	1
"1026"	9	"v"	2	1	1	1	1	216	0	6	6	1	596	1	"stug"	0	2
"1027"	9	"v"	3	1	1	2	6	216	1	5	5	1	417	1	"lief"	1	1
"1028"	9	"v"	4	1	1	1	1	216	0	6	6	1	589	1	"stug"	0	2
"1029"	9	"v"	5	1	1	2	6	216	1	5	5	1	396	1	"lief"	1	1
"1030"	9	"v"	6	1	1	2	0	216	1	5	5	1	500	1	"vriendelijk"	0	2
"1031"	9	"v"	7	1	1	1	4	216	1	5	5	1	374	7	"vriendelijk"	1	1
"1032"	9	"v"	8	1	1	2	6	216	0	6	6	1	594	1	"onvriendelijk"	1	1
"1033"	9	"v"	9	1	1	2	2	216	1	5	5	1	445	7	"aangenaam"	1	1
"1035"	9	"v"	11	1	1	2	7	216	1	5	5	1	438	1	"vriendelijk"	1	1
"1036"	9	"v"	12	1	1	1	3	216	0	6	6	1	420	1	"humeurig"	1	1
"1037"	9	"v"	13	1	1	2	7	216	1	5	5	1	356	7	"liefhebbend"	1	1
"1038"	9	"v"	14	1	1	1	4	216	1	5	5	1	443	1	"aangenaam"	1	1
"1039"	9	"v"	15	1	1	2	0	216	1	5	5	1	493	1	"sympathiek"	0	2
"1040"	9	"v"	16	1	1	1	4	216	1	5	5	1	386	1	"liefhebbend"	1	1
"1041"	9	"v"	17	1	1	2	0	216	0	6	6	1	488	1	"onsympathiek"	0	2
"1043"	9	"v"	19	1	1	1	1	216	1	5	5	1	471	1	"liefhebbend"	0	2
"1044"	9	"v"	20	1	1	2	2	216	0	6	6	1	560	7	"onsympathiek"	1	1
"1045"	9	"v"	21	1	1	1	4	216	0	6	6	1	358	1	"stug"	1	1
"1046"	9	"v"	22	1	1	1	4	216	0	6	6	1	489	7	"onaardig"	1	1
"1048"	9	"v"	24	1	1	2	0	216	0	6	6	1	532	1	"irritant"	0	2
"1049"	9	"v"	25	1	1	2	7	216	0	6	6	1	511	6	"humeurig"	1	1
"1050"	9	"v"	26	1	1	2	7	216	0	6	6	1	508	1	"irritant"	1	1
"1051"	9	"v"	27	1	1	2	2	216	1	5	5	1	434	7	"vriendelijk"	1	1
"1052"	9	"v"	28	1	1	2	2	216	0	6	6	1	408	7	"onaardig"	1	1
"1053"	9	"v"	29	1	1	2	7	216	1	5	5	1	494	1	"sympathiek"	1	1
"1054"	9	"v"	30	1	1	2	6	216	0	6	6	1	492	7	"onvriendelijk"	1	1
"1055"	9	"v"	31	1	1	1	1	216	1	5	5	1	469	7	"aangenaam"	0	2
"1056"	9	"v"	32	1	1	2	7	216	1	5	5	1	490	1	"mooi"	1	1
"1057"	9	"v"	33	2	1	2	0	216	0	6	6	1	454	7	"onvriendelijk"	0	2
"1058"	9	"v"	34	2	1	1	1	216	1	5	5	1	409	6	"mooi"	0	2
"1059"	9	"v"	35	2	1	1	1	216	0	6	6	1	419	1	"onaardig"	0	2
"1060"	9	"v"	36	2	1	2	7	216	1	5	5	1	435	7	"lief"	1	1
"1061"	9	"v"	37	2	1	1	1	216	1	5	5	1	515	1	"vriendelijk"	0	2
"1062"	9	"v"	38	2	1	1	5	216	1	5	5	1	362	1	"mooi"	0	2
"1063"	9	"v"	39	2	1	1	4	216	1	5	5	1	413	7	"liefhebbend"	1	1
"1064"	9	"v"	40	2	1	1	4	216	1	5	5	1	383	1	"mooi"	1	1
"1066"	9	"v"	42	2	1	2	0	216	1	5	5	1	490	1	"aangenaam"	0	2
"1067"	9	"v"	43	2	1	1	4	216	0	6	6	1	427	1	"onvriendelijk"	1	1
"1068"	9	"v"	44	2	1	1	5	216	0	6	6	1	442	7	"onvriendelijk"	0	2
"1069"	9	"v"	45	2	1	1	3	216	0	6	6	1	351	1	"onvriendelijk"	1	1
"1070"	9	"v"	46	2	1	2	0	216	0	6	6	1	483	1	"stug"	0	2
"1071"	9	"v"	47	2	1	2	6	216	1	5	5	1	439	9	"mooi"	1	1
"1072"	9	"v"	48	2	1	2	2	216	0	6	6	1	412	1	"humeurig"	1	1
"1073"	9	"v"	49	2	1	1	5	216	1	5	5	1	474	1	"mooi"	0	2
"1074"	9	"v"	50	2	1	2	2	216	1	5	5	1	470	1	"mooi"	1	1
"1075"	9	"v"	51	2	1	2	0	216	0	6	6	1	467	1	"stug"	0	2
"1076"	9	"v"	52	2	1	2	6	216	0	6	6	1	480	1	"stug"	1	1
"1077"	9	"v"	53	2	1	1	4	216	1	5	5	1	508	1	"mooi"	1	1
"1078"	9	"v"	54	2	1	2	7	216	0	6	6	1	472	10	"irritant"	1	1
"1079"	9	"v"	55	2	1	2	2	216	0	6	6	1	421	6	"irritant"	1	1
"1080"	9	"v"	56	2	1	1	3	216	1	5	5	1	490	1	"lief"	1	1
"1081"	9	"v"	57	2	1	1	1	216	0	6	6	1	489	7	"onsympathiek"	0	2
"1082"	9	"v"	58	2	1	1	4	216	0	6	6	1	517	1	"stug"	1	1
"1083"	9	"v"	59	2	1	2	7	216	0	6	6	1	497	1	"onvriendelijk"	1	1
"1084"	9	"v"	60	2	1	1	3	216	1	5	5	1	522	10	"mooi"	1	1
"1085"	9	"v"	61	2	1	1	3	216	0	6	6	1	536	7	"irritant"	1	1
"1086"	9	"v"	62	2	1	1	5	216	1	5	5	1	531	1	"mooi"	0	2
"1087"	9	"v"	63	2	1	2	6	216	1	5	5	1	494	1	"liefhebbend"	1	1
"1088"	9	"v"	64	2	1	1	1	216	0	6	6	1	553	6	"irritant"	0	2
"1090"	9	"v"	66	3	1	2	2	216	0	6	6	1	467	1	"onsympathiek"	1	1
"1091"	9	"v"	67	3	1	1	1	216	0	6	6	1	499	1	"humeurig"	0	2
"1092"	9	"v"	68	3	1	1	5	216	0	6	6	1	432	1	"stug"	0	2
"1093"	9	"v"	69	3	1	1	4	216	1	5	5	1	369	1	"aangenaam"	1	1
"1094"	9	"v"	70	3	1	1	5	216	1	5	5	1	389	1	"lief"	0	2
"1095"	9	"v"	71	3	1	1	3	216	1	5	5	1	461	1	"mooi"	1	1
"1096"	9	"v"	72	3	1	2	6	216	1	5	5	1	352	1	"mooi"	1	1
"1097"	9	"v"	73	3	1	2	2	216	0	6	6	1	385	6	"onvriendelijk"	1	1
"1098"	9	"v"	74	3	1	1	1	216	0	6	6	1	405	1	"onsympathiek"	0	2
"1099"	9	"v"	75	3	1	2	0	216	0	6	6	1	398	1	"irritant"	0	2
"1100"	9	"v"	76	3	1	1	4	216	0	6	6	1	402	7	"irritant"	1	1
"1101"	9	"v"	77	3	1	1	3	216	0	6	6	1	387	6	"stug"	1	1
"1102"	9	"v"	78	3	1	2	6	216	1	5	5	1	373	7	"liefhebbend"	1	1
"1103"	9	"v"	79	3	1	1	4	216	1	5	5	1	440	7	"sympathiek"	1	1
"1104"	9	"v"	80	3	1	2	0	216	1	5	5	1	430	7	"sympathiek"	0	2
"1105"	9	"v"	81	3	1	2	0	216	1	5	5	1	368	1	"lief"	0	2
"1106"	9	"v"	82	3	1	2	2	216	1	5	5	1	401	1	"vriendelijk"	1	1
"1107"	9	"v"	83	3	1	1	4	216	0	6	6	1	417	7	"irritant"	1	1
"1108"	9	"v"	84	3	1	1	1	216	1	5	5	1	417	7	"mooi"	0	2
"1109"	9	"v"	85	3	1	2	2	216	1	5	5	1	439	1	"liefhebbend"	1	1
"1110"	9	"v"	86	3	1	1	5	216	1	5	5	1	487	1	"vriendelijk"	0	2
"1111"	9	"v"	87	3	1	1	5	216	1	5	5	1	473	22	"lief"	0	2
"1112"	9	"v"	88	3	1	2	7	216	1	5	5	1	384	1	"lief"	1	1
"1113"	9	"v"	89	3	1	2	0	216	1	5	5	1	403	7	"mooi"	0	2
"1114"	9	"v"	90	3	1	1	3	216	1	5	5	1	414	1	"vriendelijk"	1	1
"1115"	9	"v"	91	3	1	1	1	216	1	5	5	1	417	1	"aangenaam"	0	2
"1116"	9	"v"	92	3	1	1	3	216	0	6	6	1	400	7	"onaardig"	1	1
"1117"	9	"v"	93	3	1	1	5	216	0	6	6	1	444	7	"stug"	0	2
"1118"	9	"v"	94	3	1	2	6	216	0	6	6	1	490	1	"onaardig"	1	1
"1119"	9	"v"	95	3	1	2	2	216	0	6	6	1	379	1	"stug"	1	1
"1120"	9	"v"	96	3	1	1	3	216	1	5	5	1	491	7	"vriendelijk"	1	1
"1121"	9	"v"	97	4	1	2	7	216	0	6	6	1	565	1	"onsympathiek"	1	1
"1122"	9	"v"	98	4	1	1	3	216	0	6	6	1	403	1	"irritant"	1	1
"1123"	9	"v"	99	4	1	1	5	216	1	5	5	1	437	1	"liefhebbend"	0	2
"1124"	9	"v"	100	4	1	1	3	216	1	5	5	1	456	1	"mooi"	1	1
"1125"	9	"v"	101	4	1	1	5	216	0	6	6	1	583	1	"humeurig"	0	2
"1126"	9	"v"	102	4	1	2	0	216	0	6	6	1	404	1	"stug"	0	2
"1127"	9	"v"	103	4	1	2	2	216	1	5	5	1	455	9	"liefhebbend"	1	1
"1128"	9	"v"	104	4	1	1	3	216	1	5	5	1	445	1	"sympathiek"	1	1
"1129"	9	"v"	105	4	1	2	2	216	1	5	5	1	405	7	"liefhebbend"	1	1
"1130"	9	"v"	106	4	1	1	1	216	1	5	5	1	440	1	"lief"	0	2
"1131"	9	"v"	107	4	1	2	7	216	1	5	5	1	360	1	"vriendelijk"	1	1
"1133"	9	"v"	109	4	1	2	6	216	0	6	6	1	594	7	"onvriendelijk"	1	1
"1134"	9	"v"	110	4	1	1	5	216	0	6	6	1	511	1	"onaardig"	0	2
"1135"	9	"v"	111	4	1	1	5	216	0	6	6	1	397	7	"onaardig"	0	2
"1136"	9	"v"	112	4	1	1	1	216	1	5	5	1	477	1	"mooi"	0	2
"1137"	9	"v"	113	4	1	1	4	216	0	6	6	1	402	1	"irritant"	1	1
"1138"	9	"v"	114	4	1	2	6	216	0	6	6	1	403	1	"stug"	1	1
"1139"	9	"v"	115	4	1	1	5	216	0	6	6	1	515	6	"onvriendelijk"	0	2
"1140"	9	"v"	116	4	1	2	2	216	0	6	6	1	595	1	"onaardig"	1	1
"1141"	9	"v"	117	4	1	2	6	216	1	5	5	1	492	1	"mooi"	1	1
"1142"	9	"v"	118	4	1	1	3	216	0	6	6	1	488	10	"onaardig"	1	1
"1143"	9	"v"	119	4	1	2	0	216	1	5	5	1	509	1	"mooi"	0	2
"1144"	9	"v"	120	4	1	2	6	216	0	6	6	1	477	1	"onsympathiek"	1	1
"1145"	9	"v"	121	4	1	2	0	216	1	5	5	1	558	1	"liefhebbend"	0	2
"1146"	9	"v"	122	4	1	1	4	216	0	6	6	1	478	1	"humeurig"	1	1
"1147"	9	"v"	123	4	1	1	3	216	0	6	6	1	448	1	"irritant"	1	1
"1148"	9	"v"	124	4	1	2	7	216	1	5	5	1	450	6	"liefhebbend"	1	1
"1149"	9	"v"	125	4	1	2	6	216	1	5	5	1	491	1	"mooi"	1	1
"1150"	9	"v"	126	4	1	1	5	216	0	6	6	1	543	1	"humeurig"	0	2
"1151"	9	"v"	127	4	1	1	1	216	0	6	6	1	372	6	"onvriendelijk"	0	2
"1152"	9	"v"	128	4	1	1	5	216	1	5	5	1	615	7	"sympathiek"	0	2
"1155"	10	"m"	3	1	2	1	4	216	1	6	6	1	645	7	"aangenaam"	0	2
"1157"	10	"m"	5	1	2	2	6	216	0	5	5	1	654	7	"stug"	0	2
"1158"	10	"m"	6	1	2	2	0	216	0	5	5	1	633	7	"irritant"	1	1
"1159"	10	"m"	7	1	2	2	6	216	1	6	6	1	493	1	"vriendelijk"	0	2
"1160"	10	"m"	8	1	2	1	4	216	1	6	6	1	538	1	"sympathiek"	0	2
"1161"	10	"m"	9	1	2	2	6	216	1	6	6	1	523	7	"mooi"	0	2
"1162"	10	"m"	10	1	2	2	2	216	1	6	6	1	547	7	"aangenaam"	0	2
"1163"	10	"m"	11	1	2	1	1	216	1	6	6	1	459	1	"aangenaam"	1	1
"1164"	10	"m"	12	1	2	1	5	216	1	6	6	1	452	1	"aangenaam"	0	2
"1165"	10	"m"	13	1	2	1	4	216	1	6	6	1	425	1	"sympathiek"	0	2
"1166"	10	"m"	14	1	2	2	0	216	1	6	6	1	819	7	"liefhebbend"	1	1
"1167"	10	"m"	15	1	2	2	2	216	1	6	6	1	510	1	"mooi"	0	2
"1168"	10	"m"	16	1	2	2	0	216	1	6	6	1	463	1	"lief"	1	1
"1169"	10	"m"	17	1	2	2	2	216	1	6	6	1	478	1	"aangenaam"	0	2
"1170"	10	"m"	18	1	2	2	2	216	0	5	5	1	501	1	"onvriendelijk"	0	2
"1171"	10	"m"	19	1	2	1	1	216	1	6	6	1	790	7	"liefhebbend"	1	1
"1172"	10	"m"	20	1	2	1	1	216	0	5	5	1	564	9	"onsympathiek"	1	1
"1174"	10	"m"	22	1	2	2	6	216	0	5	5	1	699	1	"irritant"	0	2
"1175"	10	"m"	23	1	2	1	3	216	1	6	6	1	530	7	"liefhebbend"	1	1
"1176"	10	"m"	24	1	2	2	6	216	0	5	5	1	773	1	"onvriendelijk"	0	2
"1177"	10	"m"	25	1	2	2	0	216	1	6	6	1	440	1	"vriendelijk"	1	1
"1178"	10	"m"	26	1	2	2	0	216	0	5	5	1	755	1	"onvriendelijk"	1	1
"1179"	10	"m"	27	1	2	2	0	216	1	6	6	1	463	1	"aangenaam"	1	1
"1180"	10	"m"	28	1	2	2	2	216	0	5	5	1	579	1	"onsympathiek"	0	2
"1181"	10	"m"	29	1	2	1	3	216	0	5	5	1	586	1	"onaardig"	1	1
"1182"	10	"m"	30	1	2	2	0	216	1	6	6	1	483	1	"sympathiek"	1	1
"1183"	10	"m"	31	1	2	1	5	216	0	5	5	1	520	1	"irritant"	0	2
"1184"	10	"m"	32	1	2	1	5	216	0	5	5	1	638	1	"onvriendelijk"	0	2
"1185"	10	"m"	33	2	2	1	3	216	0	5	5	1	569	7	"stug"	1	1
"1186"	10	"m"	34	2	2	2	2	216	1	6	6	1	561	1	"aangenaam"	0	2
"1187"	10	"m"	35	2	2	2	7	216	0	5	5	1	514	1	"onsympathiek"	0	2
"1188"	10	"m"	36	2	2	1	1	216	1	6	6	1	476	1	"lief"	1	1
"1189"	10	"m"	37	2	2	1	3	216	1	6	6	1	446	7	"lief"	1	1
"1191"	10	"m"	39	2	2	2	0	216	1	6	6	1	422	7	"lief"	1	1
"1193"	10	"m"	41	2	2	1	1	216	0	5	5	1	1000	7	"onaardig"	1	1
"1194"	10	"m"	42	2	2	2	7	216	0	5	5	1	518	1	"stug"	0	2
"1195"	10	"m"	43	2	2	1	1	216	0	5	5	1	497	1	"stug"	1	1
"1196"	10	"m"	44	2	2	1	4	216	1	6	6	1	699	7	"sympathiek"	0	2
"1197"	10	"m"	45	2	2	1	5	216	0	5	5	1	440	7	"onvriendelijk"	0	2
"1199"	10	"m"	47	2	2	2	7	216	1	6	6	1	567	7	"aangenaam"	0	2
"1200"	10	"m"	48	2	2	2	6	216	1	6	6	1	645	1	"aangenaam"	0	2
"1201"	10	"m"	49	2	2	1	5	216	0	5	5	1	527	1	"onsympathiek"	0	2
"1202"	10	"m"	50	2	2	1	3	216	1	6	6	1	702	1	"vriendelijk"	1	1
"1203"	10	"m"	51	2	2	1	4	216	0	5	5	1	625	7	"onaardig"	0	2
"1204"	10	"m"	52	2	2	2	6	216	0	5	5	1	589	7	"irritant"	0	2
"1205"	10	"m"	53	2	2	2	7	216	1	6	6	1	401	7	"lief"	0	2
"1206"	10	"m"	54	2	2	2	0	216	1	6	6	1	632	1	"sympathiek"	1	1
"1207"	10	"m"	55	2	2	2	7	216	0	5	5	1	590	1	"onaardig"	0	2
"1208"	10	"m"	56	2	2	1	5	216	1	6	6	1	551	7	"aangenaam"	0	2
"1209"	10	"m"	57	2	2	2	6	216	1	6	6	1	624	1	"vriendelijk"	0	2
"1210"	10	"m"	58	2	2	2	6	216	0	5	5	1	581	1	"onsympathiek"	0	2
"1211"	10	"m"	59	2	2	1	5	216	1	6	6	1	590	7	"sympathiek"	0	2
"1212"	10	"m"	60	2	2	2	7	216	0	5	5	1	605	21	"stug"	0	2
"1213"	10	"m"	61	2	2	2	7	216	0	5	5	1	576	7	"onvriendelijk"	0	2
"1214"	10	"m"	62	2	2	1	4	216	1	6	6	1	427	7	"lief"	0	2
"1215"	10	"m"	63	2	2	1	4	216	0	5	5	1	639	7	"irritant"	0	2
"1216"	10	"m"	64	2	2	1	3	216	1	6	6	1	449	7	"aangenaam"	1	1
"1217"	10	"m"	65	3	2	2	2	216	0	5	5	1	591	1	"onaardig"	0	2
"1218"	10	"m"	66	3	2	2	6	216	1	6	6	1	448	1	"lief"	0	2
"1219"	10	"m"	67	3	2	1	5	216	1	6	6	1	694	1	"mooi"	0	2
"1220"	10	"m"	68	3	2	2	7	216	1	6	6	1	475	1	"lief"	0	2
"1221"	10	"m"	69	3	2	1	4	216	0	5	5	1	628	6	"humeurig"	0	2
"1222"	10	"m"	70	3	2	2	2	216	1	6	6	1	363	1	"vriendelijk"	0	2
"1223"	10	"m"	71	3	2	1	4	216	1	6	6	1	440	1	"mooi"	0	2
"1224"	10	"m"	72	3	2	1	3	216	0	5	5	1	567	1	"onsympathiek"	1	1
"1225"	10	"m"	73	3	2	1	5	216	1	6	6	1	390	7	"lief"	0	2
"1226"	10	"m"	74	3	2	1	5	216	1	6	6	1	439	1	"aangenaam"	0	2
"1227"	10	"m"	75	3	2	1	3	216	0	5	5	1	558	1	"stug"	1	1
"1229"	10	"m"	77	3	2	2	2	216	1	6	6	1	485	1	"sympathiek"	0	2
"1230"	10	"m"	78	3	2	1	3	216	0	5	5	1	554	1	"stug"	1	1
"1232"	10	"m"	80	3	2	1	1	216	1	6	6	1	438	1	"lief"	1	1
"1233"	10	"m"	81	3	2	2	0	216	1	6	6	1	537	7	"liefhebbend"	1	1
"1234"	10	"m"	82	3	2	1	5	216	0	5	5	1	563	7	"onvriendelijk"	0	2
"1235"	10	"m"	83	3	2	1	4	216	0	5	5	1	562	6	"stug"	0	2
"1236"	10	"m"	84	3	2	1	1	216	1	6	6	1	592	1	"sympathiek"	1	1
"1239"	10	"m"	87	3	2	1	1	216	1	6	6	1	680	1	"lief"	1	1
"1240"	10	"m"	88	3	2	2	7	216	1	6	6	1	480	10	"aangenaam"	0	2
"1241"	10	"m"	89	3	2	2	2	216	0	5	5	1	834	9	"humeurig"	0	2
"1242"	10	"m"	90	3	2	1	4	216	1	6	6	1	503	7	"vriendelijk"	0	2
"1243"	10	"m"	91	3	2	2	7	216	1	6	6	1	673	10	"aangenaam"	0	2
"1244"	10	"m"	92	3	2	2	2	216	0	5	5	1	529	1	"onsympathiek"	0	2
"1245"	10	"m"	93	3	2	1	5	216	0	5	5	1	490	7	"onvriendelijk"	0	2
"1246"	10	"m"	94	3	2	2	7	216	0	5	5	1	482	1	"onvriendelijk"	0	2
"1247"	10	"m"	95	3	2	1	3	216	1	6	6	1	679	7	"liefhebbend"	1	1
"1248"	10	"m"	96	3	2	2	7	216	0	5	5	1	434	7	"onaardig"	0	2
"1249"	10	"m"	97	4	2	1	1	216	0	5	5	1	635	6	"onaardig"	1	1
"1250"	10	"m"	98	4	2	1	3	216	1	6	6	1	423	8	"lief"	1	1
"1251"	10	"m"	99	4	2	2	0	216	0	5	5	1	524	7	"onvriendelijk"	1	1
"1252"	10	"m"	100	4	2	2	6	216	1	6	6	1	363	6	"lief"	0	2
"1253"	10	"m"	101	4	2	2	0	216	0	5	5	1	563	1	"humeurig"	1	1
"1254"	10	"m"	102	4	2	1	5	216	0	5	5	1	578	1	"onaardig"	0	2
"1255"	10	"m"	103	4	2	1	5	216	0	5	5	1	508	6	"onaardig"	0	2
"1256"	10	"m"	104	4	2	1	4	216	0	5	5	1	924	7	"onvriendelijk"	0	2
"1257"	10	"m"	105	4	2	1	5	216	1	6	6	1	801	1	"sympathiek"	0	2
"1258"	10	"m"	106	4	2	2	6	216	0	5	5	1	482	1	"stug"	0	2
"1260"	10	"m"	108	4	2	2	7	216	1	6	6	1	678	8	"aangenaam"	0	2
"1261"	10	"m"	109	4	2	1	1	216	0	5	5	1	517	8	"onaardig"	1	1
"1262"	10	"m"	110	4	2	2	2	216	1	6	6	1	536	6	"vriendelijk"	0	2
"1263"	10	"m"	111	4	2	2	0	216	0	5	5	1	455	1	"onaardig"	1	1
"1264"	10	"m"	112	4	2	1	3	216	0	5	5	1	536	1	"onsympathiek"	1	1
"1265"	10	"m"	113	4	2	2	7	216	1	6	6	1	539	1	"aangenaam"	0	2
"1266"	10	"m"	114	4	2	2	0	216	0	5	5	1	548	1	"stug"	1	1
"1267"	10	"m"	115	4	2	1	5	216	1	6	6	1	661	1	"liefhebbend"	0	2
"1268"	10	"m"	116	4	2	2	2	216	0	5	5	1	979	8	"onaardig"	0	2
"1269"	10	"m"	117	4	2	1	1	216	1	6	6	1	517	7	"mooi"	1	1
"1270"	10	"m"	118	4	2	2	6	216	1	6	6	1	722	7	"aangenaam"	0	2
"1271"	10	"m"	119	4	2	1	4	216	0	5	5	1	518	7	"stug"	0	2
"1272"	10	"m"	120	4	2	2	6	216	0	5	5	1	557	1	"onvriendelijk"	0	2
"1273"	10	"m"	121	4	2	2	6	216	1	6	6	1	421	9	"aangenaam"	0	2
"1274"	10	"m"	122	4	2	2	2	216	0	5	5	1	614	6	"humeurig"	0	2
"1275"	10	"m"	123	4	2	2	6	216	0	5	5	1	496	6	"humeurig"	0	2
"1276"	10	"m"	124	4	2	1	3	216	1	6	6	1	479	1	"liefhebbend"	1	1
"1277"	10	"m"	125	4	2	1	3	216	0	5	5	1	838	7	"onvriendelijk"	1	1
"1278"	10	"m"	126	4	2	2	2	216	0	5	5	1	621	1	"irritant"	0	2
"1279"	10	"m"	127	4	2	1	1	216	0	5	5	1	511	1	"onaardig"	1	1
"1280"	10	"m"	128	4	2	2	2	216	1	6	6	1	512	1	"vriendelijk"	0	2
"1282"	11	"v"	2	1	2	1	6	216	1	6	6	1	501	1	"sympathiek"	1	1
"1283"	11	"v"	3	1	2	2	1	216	1	6	6	1	413	1	"lief"	1	1
"1284"	11	"v"	4	1	2	2	5	216	0	5	5	1	473	1	"onsympathiek"	1	1
"1285"	11	"v"	5	1	2	2	0	216	0	5	5	1	477	1	"onaardig"	1	1
"1286"	11	"v"	6	1	2	1	3	216	0	5	5	1	736	6	"onsympathiek"	1	1
"1287"	11	"v"	7	1	2	2	5	216	1	6	6	1	538	9	"liefhebbend"	1	1
"1288"	11	"v"	8	1	2	2	0	216	0	5	5	1	598	1	"onsympathiek"	1	1
"1289"	11	"v"	9	1	2	1	6	216	0	5	5	1	590	7	"stug"	1	1
"1290"	11	"v"	10	1	2	1	6	216	1	6	6	1	441	7	"aangenaam"	1	1
"1291"	11	"v"	11	1	2	2	7	216	1	6	6	1	498	1	"aangenaam"	1	1
"1292"	11	"v"	12	1	2	1	4	216	1	6	6	1	462	1	"liefhebbend"	1	1
"1293"	11	"v"	13	1	2	1	2	216	0	5	5	1	482	1	"onvriendelijk"	1	1
"1295"	11	"v"	15	1	2	1	6	216	0	5	5	1	477	7	"onsympathiek"	1	1
"1296"	11	"v"	16	1	2	1	3	216	1	6	6	1	445	1	"liefhebbend"	1	1
"1297"	11	"v"	17	1	2	1	2	216	0	5	5	1	514	1	"onaardig"	1	1
"1298"	11	"v"	18	1	2	2	0	216	1	6	6	1	453	1	"liefhebbend"	1	1
"1299"	11	"v"	19	1	2	2	7	216	1	6	6	1	597	1	"vriendelijk"	1	1
"1301"	11	"v"	21	1	2	1	4	216	1	6	6	1	501	7	"lief"	1	1
"1302"	11	"v"	22	1	2	2	0	216	0	5	5	1	452	1	"stug"	1	1
"1303"	11	"v"	23	1	2	2	7	216	0	5	5	1	496	1	"onaardig"	1	1
"1304"	11	"v"	24	1	2	1	3	216	0	5	5	1	562	1	"stug"	1	1
"1305"	11	"v"	25	1	2	1	3	216	0	5	5	1	450	7	"stug"	1	1
"1306"	11	"v"	26	1	2	2	0	216	0	5	5	1	563	1	"humeurig"	1	1
"1307"	11	"v"	27	1	2	2	5	216	0	5	5	1	411	1	"onvriendelijk"	1	1
"1308"	11	"v"	28	1	2	2	5	216	0	5	5	1	421	7	"onvriendelijk"	1	1
"1309"	11	"v"	29	1	2	2	1	216	0	5	5	1	329	7	"onaardig"	1	1
"1310"	11	"v"	30	1	2	1	4	216	1	6	6	1	502	1	"mooi"	1	1
"1311"	11	"v"	31	1	2	2	1	216	1	6	6	1	661	7	"aangenaam"	1	1
"1312"	11	"v"	32	1	2	1	3	216	1	6	6	1	386	1	"aangenaam"	1	1
"1313"	11	"v"	33	2	2	1	6	216	1	6	6	1	406	7	"sympathiek"	1	1
"1314"	11	"v"	34	2	2	1	2	216	1	6	6	1	478	1	"liefhebbend"	1	1
"1315"	11	"v"	35	2	2	2	7	216	0	5	5	1	593	28	"irritant"	1	1
"1316"	11	"v"	36	2	2	2	1	216	0	5	5	1	764	7	"humeurig"	1	1
"1317"	11	"v"	37	2	2	1	3	216	1	6	6	1	474	7	"vriendelijk"	1	1
"1318"	11	"v"	38	2	2	1	6	216	0	5	5	1	602	7	"onaardig"	1	1
"1319"	11	"v"	39	2	2	1	4	216	0	5	5	1	477	6	"irritant"	1	1
"1320"	11	"v"	40	2	2	2	0	216	1	6	6	1	525	1	"lief"	1	1
"1321"	11	"v"	41	2	2	1	3	216	0	5	5	1	693	7	"onsympathiek"	1	1
"1322"	11	"v"	42	2	2	1	3	216	1	6	6	1	596	1	"lief"	1	1
"1323"	11	"v"	43	2	2	2	1	216	0	5	5	1	459	1	"onaardig"	1	1
"1324"	11	"v"	44	2	2	2	1	216	1	6	6	1	592	1	"liefhebbend"	1	1
"1325"	11	"v"	45	2	2	1	6	216	0	5	5	1	510	1	"stug"	1	1
"1326"	11	"v"	46	2	2	2	1	216	0	5	5	1	713	6	"irritant"	1	1
"1327"	11	"v"	47	2	2	1	6	216	1	6	6	1	445	1	"lief"	1	1
"1328"	11	"v"	48	2	2	1	3	216	1	6	6	1	470	1	"mooi"	1	1
"1329"	11	"v"	49	2	2	1	4	216	0	5	5	1	579	7	"onvriendelijk"	1	1
"1330"	11	"v"	50	2	2	2	0	216	0	5	5	1	565	1	"humeurig"	1	1
"1331"	11	"v"	51	2	2	1	2	216	1	6	6	1	573	29	"lief"	1	1
"1332"	11	"v"	52	2	2	2	7	216	0	5	5	1	663	1	"irritant"	1	1
"1333"	11	"v"	53	2	2	2	5	216	0	5	5	1	531	1	"stug"	1	1
"1334"	11	"v"	54	2	2	1	2	216	0	5	5	1	560	1	"onvriendelijk"	1	1
"1335"	11	"v"	55	2	2	2	5	216	0	5	5	1	537	6	"irritant"	1	1
"1337"	11	"v"	57	2	2	2	7	216	0	5	5	1	495	1	"stug"	1	1
"1338"	11	"v"	58	2	2	2	5	216	1	6	6	1	669	7	"sympathiek"	1	1
"1339"	11	"v"	59	2	2	1	4	216	0	5	5	1	469	7	"humeurig"	1	1
"1340"	11	"v"	60	2	2	2	1	216	1	6	6	1	554	7	"liefhebbend"	1	1
"1341"	11	"v"	61	2	2	1	2	216	1	6	6	1	564	1	"mooi"	1	1
"1342"	11	"v"	62	2	2	2	0	216	0	5	5	1	471	1	"onaardig"	1	1
"1343"	11	"v"	63	2	2	2	7	216	1	6	6	1	565	1	"mooi"	1	1
"1344"	11	"v"	64	2	2	1	4	216	1	6	6	1	550	7	"vriendelijk"	1	1
"1345"	11	"v"	65	3	2	2	5	216	1	6	6	1	466	1	"vriendelijk"	1	1
"1346"	11	"v"	66	3	2	1	6	216	0	5	5	1	413	7	"onsympathiek"	1	1
"1347"	11	"v"	67	3	2	2	1	216	0	5	5	1	435	7	"onvriendelijk"	1	1
"1348"	11	"v"	68	3	2	1	3	216	1	6	6	1	526	1	"aangenaam"	1	1
"1349"	11	"v"	69	3	2	2	7	216	1	6	6	1	458	1	"sympathiek"	1	1
"1350"	11	"v"	70	3	2	1	2	216	1	6	6	1	510	1	"vriendelijk"	1	1
"1351"	11	"v"	71	3	2	2	5	216	1	6	6	1	552	10	"liefhebbend"	1	1
"1352"	11	"v"	72	3	2	2	1	216	1	6	6	1	373	1	"lief"	1	1
"1353"	11	"v"	73	3	2	2	7	216	1	6	6	1	317	7	"lief"	1	1
"1354"	11	"v"	74	3	2	2	0	216	0	5	5	1	475	6	"onaardig"	1	1
"1356"	11	"v"	76	3	2	2	1	216	0	5	5	1	535	1	"humeurig"	1	1
"1357"	11	"v"	77	3	2	2	7	216	0	5	5	1	490	1	"humeurig"	1	1
"1358"	11	"v"	78	3	2	2	1	216	0	5	5	1	622	10	"onsympathiek"	1	1
"1359"	11	"v"	79	3	2	2	1	216	1	6	6	1	504	6	"mooi"	1	1
"1360"	11	"v"	80	3	2	1	2	216	0	5	5	1	625	7	"onaardig"	1	1
"1361"	11	"v"	81	3	2	1	3	216	0	5	5	1	505	1	"stug"	1	1
"1362"	11	"v"	82	3	2	1	4	216	1	6	6	1	463	7	"sympathiek"	1	1
"1363"	11	"v"	83	3	2	1	6	216	0	5	5	1	508	7	"onaardig"	1	1
"1365"	11	"v"	85	3	2	2	5	216	0	5	5	1	582	1	"onaardig"	1	1
"1366"	11	"v"	86	3	2	1	3	216	1	6	6	1	802	1	"sympathiek"	1	1
"1368"	11	"v"	88	3	2	1	2	216	1	6	6	1	519	1	"vriendelijk"	1	1
"1369"	11	"v"	89	3	2	1	4	216	1	6	6	1	376	6	"lief"	1	1
"1370"	11	"v"	90	3	2	2	0	216	1	6	6	1	448	7	"liefhebbend"	1	1
"1371"	11	"v"	91	3	2	1	4	216	0	5	5	1	504	6	"onaardig"	1	1
"1372"	11	"v"	92	3	2	2	7	216	1	6	6	1	664	1	"liefhebbend"	1	1
"1373"	11	"v"	93	3	2	2	7	216	0	5	5	1	498	7	"onvriendelijk"	1	1
"1374"	11	"v"	94	3	2	1	4	216	1	6	6	1	414	7	"lief"	1	1
"1375"	11	"v"	95	3	2	2	5	216	0	5	5	1	568	7	"onvriendelijk"	1	1
"1376"	11	"v"	96	3	2	2	7	216	1	6	6	1	462	1	"liefhebbend"	1	1
"1377"	11	"v"	97	4	2	2	0	216	0	5	5	1	479	1	"stug"	1	1
"1378"	11	"v"	98	4	2	1	2	216	0	5	5	1	480	7	"onsympathiek"	1	1
"1379"	11	"v"	99	4	2	2	0	216	1	6	6	1	381	1	"aangenaam"	1	1
"1380"	11	"v"	100	4	2	1	2	216	1	6	6	1	582	1	"sympathiek"	1	1
"1381"	11	"v"	101	4	2	1	3	216	0	5	5	1	450	1	"onsympathiek"	1	1
"1384"	11	"v"	104	4	2	2	1	216	0	5	5	1	772	1	"onvriendelijk"	1	1
"1385"	11	"v"	105	4	2	2	7	216	0	5	5	1	615	1	"onsympathiek"	1	1
"1386"	11	"v"	106	4	2	2	5	216	1	6	6	1	532	7	"mooi"	1	1
"1387"	11	"v"	107	4	2	2	0	216	1	6	6	1	527	1	"lief"	1	1
"1388"	11	"v"	108	4	2	2	7	216	0	5	5	1	548	1	"onvriendelijk"	1	1
"1389"	11	"v"	109	4	2	2	1	216	1	6	6	1	856	1	"mooi"	1	1
"1391"	11	"v"	111	4	2	1	3	216	1	6	6	1	498	7	"aangenaam"	1	1
"1393"	11	"v"	113	4	2	1	2	216	1	6	6	1	631	7	"lief"	1	1
"1394"	11	"v"	114	4	2	2	0	216	1	6	6	1	461	1	"liefhebbend"	1	1
"1395"	11	"v"	115	4	2	1	4	216	1	6	6	1	447	1	"vriendelijk"	1	1
"1396"	11	"v"	116	4	2	1	2	216	1	6	6	1	379	7	"lief"	1	1
"1397"	11	"v"	117	4	2	1	6	216	1	6	6	1	401	1	"mooi"	1	1
"1398"	11	"v"	118	4	2	2	5	216	1	6	6	1	325	1	"lief"	1	1
"1399"	11	"v"	119	4	2	1	6	216	0	5	5	1	574	1	"onvriendelijk"	1	1
"1401"	11	"v"	121	4	2	1	6	216	1	6	6	1	552	1	"aangenaam"	1	1
"1402"	11	"v"	122	4	2	1	4	216	0	5	5	1	567	1	"onvriendelijk"	1	1
"1404"	11	"v"	124	4	2	2	1	216	1	6	6	1	523	1	"mooi"	1	1
"1405"	11	"v"	125	4	2	2	5	216	1	6	6	1	516	1	"sympathiek"	1	1
"1406"	11	"v"	126	4	2	1	4	216	0	5	5	1	738	7	"humeurig"	1	1
"1407"	11	"v"	127	4	2	1	2	216	0	5	5	1	518	6	"stug"	1	1
"1408"	11	"v"	128	4	2	2	0	216	1	6	6	1	595	1	"lief"	1	1
"1410"	12	"v"	2	1	1	2	7	216	1	5	5	1	963	1	"lief"	0	3
"1411"	12	"v"	3	1	1	2	5	216	1	5	5	1	711	7	"mooi"	1	1
"1412"	12	"v"	4	1	1	1	2	216	1	5	5	1	671	1	"sympathiek"	0	4
"1413"	12	"v"	5	1	1	1	3	216	1	5	5	1	524	1	"vriendelijk"	0	2
"1415"	12	"v"	7	1	1	1	6	216	1	5	5	1	816	8	"liefhebbend"	1	1
"1416"	12	"v"	8	1	1	2	1	216	0	6	6	1	450	1	"irritant"	1	1
"1417"	12	"v"	9	1	1	2	0	216	1	5	5	1	408	7	"lief"	0	3
"1418"	12	"v"	10	1	1	2	1	216	1	5	5	1	684	7	"liefhebbend"	1	1
"1419"	12	"v"	11	1	1	1	6	216	1	5	5	1	590	1	"sympathiek"	1	1
"1420"	12	"v"	12	1	1	1	3	216	0	6	6	1	573	9	"irritant"	0	2
"1421"	12	"v"	13	1	1	1	3	216	1	5	5	1	305	7	"aangenaam"	0	2
"1422"	12	"v"	14	1	1	2	7	216	0	6	6	1	619	1	"stug"	0	3
"1423"	12	"v"	15	1	1	1	4	216	1	5	5	1	285	1	"mooi"	1	1
"1424"	12	"v"	16	1	1	2	7	216	1	5	5	1	513	7	"mooi"	0	3
"1426"	12	"v"	18	1	1	2	0	216	1	5	5	1	509	1	"aangenaam"	0	3
"1427"	12	"v"	19	1	1	1	2	216	0	6	6	1	733	7	"humeurig"	0	4
"1428"	12	"v"	20	1	1	2	0	216	0	6	6	1	575	6	"onaardig"	0	3
"1429"	12	"v"	21	1	1	2	7	216	0	6	6	1	464	1	"onvriendelijk"	0	3
"1431"	12	"v"	23	1	1	2	0	216	0	6	6	1	654	7	"onsympathiek"	0	3
"1432"	12	"v"	24	1	1	1	6	216	1	5	5	1	675	7	"vriendelijk"	1	1
"1433"	12	"v"	25	1	1	1	4	216	0	6	6	1	597	7	"onvriendelijk"	1	1
"1434"	12	"v"	26	1	1	2	0	216	1	5	5	1	801	7	"aangenaam"	0	3
"1435"	12	"v"	27	1	1	2	0	216	1	5	5	1	525	1	"mooi"	0	3
"1436"	12	"v"	28	1	1	2	7	216	1	5	5	1	477	1	"mooi"	0	3
"1437"	12	"v"	29	1	1	1	4	216	1	5	5	1	483	1	"aangenaam"	1	1
"1438"	12	"v"	30	1	1	1	2	216	1	5	5	1	505	1	"aangenaam"	0	4
"1440"	12	"v"	32	1	1	1	4	216	1	5	5	1	612	7	"liefhebbend"	1	1
"1441"	12	"v"	33	2	1	2	0	216	0	6	6	1	591	1	"onvriendelijk"	0	3
"1442"	12	"v"	34	2	1	1	6	216	1	5	5	1	493	1	"lief"	1	1
"1443"	12	"v"	35	2	1	1	2	216	1	5	5	1	648	6	"liefhebbend"	0	4
"1444"	12	"v"	36	2	1	2	5	216	0	6	6	1	548	7	"onaardig"	1	1
"1445"	12	"v"	37	2	1	2	7	216	0	6	6	1	749	1	"irritant"	0	3
"1446"	12	"v"	38	2	1	2	5	216	0	6	6	1	645	1	"onsympathiek"	1	1
"1447"	12	"v"	39	2	1	2	0	216	0	6	6	1	588	1	"onaardig"	0	3
"1448"	12	"v"	40	2	1	2	7	216	0	6	6	1	440	1	"irritant"	0	3
"1449"	12	"v"	41	2	1	2	1	216	0	6	6	1	539	1	"onsympathiek"	1	1
"1450"	12	"v"	42	2	1	1	4	216	1	5	5	1	443	1	"lief"	1	1
"1451"	12	"v"	43	2	1	1	2	216	1	5	5	1	527	1	"vriendelijk"	0	4
"1452"	12	"v"	44	2	1	1	3	216	0	6	6	1	475	1	"onaardig"	0	2
"1453"	12	"v"	45	2	1	2	1	216	0	6	6	1	574	10	"onvriendelijk"	1	1
"1454"	12	"v"	46	2	1	1	2	216	0	6	6	1	403	1	"irritant"	0	4
"1455"	12	"v"	47	2	1	1	3	216	1	5	5	1	534	10	"liefhebbend"	0	2
"1456"	12	"v"	48	2	1	2	1	216	1	5	5	1	635	7	"vriendelijk"	1	1
"1457"	12	"v"	49	2	1	2	5	216	0	6	6	1	564	7	"onsympathiek"	1	1
"1458"	12	"v"	50	2	1	1	2	216	0	6	6	1	615	7	"onsympathiek"	0	4
"1459"	12	"v"	51	2	1	1	4	216	0	6	6	1	536	1	"onsympathiek"	1	1
"1460"	12	"v"	52	2	1	2	0	216	0	6	6	1	485	7	"irritant"	0	3
"1462"	12	"v"	54	2	1	2	7	216	0	6	6	1	539	1	"onsympathiek"	0	3
"1463"	12	"v"	55	2	1	2	1	216	1	5	5	1	545	1	"mooi"	1	1
"1464"	12	"v"	56	2	1	2	0	216	0	6	6	1	702	1	"humeurig"	0	3
"1465"	12	"v"	57	2	1	2	5	216	0	6	6	1	709	1	"irritant"	1	1
"1467"	12	"v"	59	2	1	1	3	216	0	6	6	1	424	1	"irritant"	0	2
"1468"	12	"v"	60	2	1	2	7	216	1	5	5	1	412	1	"lief"	0	3
"1469"	12	"v"	61	2	1	1	6	216	1	5	5	1	640	7	"aangenaam"	1	1
"1470"	12	"v"	62	2	1	1	3	216	0	6	6	1	573	1	"onsympathiek"	0	2
"1471"	12	"v"	63	2	1	1	4	216	1	5	5	1	525	1	"aangenaam"	1	1
"1472"	12	"v"	64	2	1	2	0	216	1	5	5	1	542	1	"vriendelijk"	0	3
"1475"	12	"v"	67	3	1	1	6	216	0	6	6	1	854	1	"onsympathiek"	1	1
"1476"	12	"v"	68	3	1	2	0	216	1	5	5	1	570	1	"aangenaam"	0	3
"1477"	12	"v"	69	3	1	2	0	216	1	5	5	1	783	7	"lief"	0	3
"1478"	12	"v"	70	3	1	1	3	216	1	5	5	1	407	7	"lief"	0	2
"1479"	12	"v"	71	3	1	1	2	216	0	6	6	1	465	7	"humeurig"	0	4
"1480"	12	"v"	72	3	1	1	4	216	1	5	5	1	516	1	"vriendelijk"	1	1
"1481"	12	"v"	73	3	1	2	1	216	0	6	6	1	989	1	"onaardig"	1	1
"1482"	12	"v"	74	3	1	1	2	216	1	5	5	1	451	1	"vriendelijk"	0	4
"1483"	12	"v"	75	3	1	1	3	216	1	5	5	1	517	1	"liefhebbend"	0	2
"1484"	12	"v"	76	3	1	1	4	216	1	5	5	1	488	9	"mooi"	1	1
"1485"	12	"v"	77	3	1	2	5	216	1	5	5	1	454	1	"mooi"	1	1
"1486"	12	"v"	78	3	1	1	3	216	1	5	5	1	430	1	"aangenaam"	0	2
"1487"	12	"v"	79	3	1	2	7	216	1	5	5	1	404	1	"vriendelijk"	0	3
"1488"	12	"v"	80	3	1	2	5	216	1	5	5	1	342	1	"lief"	1	1
"1489"	12	"v"	81	3	1	2	5	216	1	5	5	1	301	1	"liefhebbend"	1	1
"1490"	12	"v"	82	3	1	2	1	216	1	5	5	1	438	7	"aangenaam"	1	1
"1491"	12	"v"	83	3	1	2	7	216	1	5	5	1	456	1	"lief"	0	3
"1492"	12	"v"	84	3	1	2	7	216	1	5	5	1	441	1	"lief"	0	3
"1493"	12	"v"	85	3	1	2	5	216	0	6	6	1	655	7	"onaardig"	1	1
"1494"	12	"v"	86	3	1	1	6	216	0	6	6	1	606	7	"onvriendelijk"	1	1
"1495"	12	"v"	87	3	1	1	2	216	0	6	6	1	563	7	"irritant"	0	4
"1496"	12	"v"	88	3	1	1	6	216	0	6	6	1	361	1	"irritant"	1	1
"1497"	12	"v"	89	3	1	1	4	216	0	6	6	1	461	7	"onaardig"	1	1
"1499"	12	"v"	91	3	1	1	3	216	0	6	6	1	752	7	"stug"	0	2
"1500"	12	"v"	92	3	1	2	7	216	0	6	6	1	531	1	"irritant"	0	3
"1501"	12	"v"	93	3	1	2	7	216	1	5	5	1	420	1	"lief"	0	3
"1502"	12	"v"	94	3	1	2	1	216	1	5	5	1	655	6	"vriendelijk"	1	1
"1503"	12	"v"	95	3	1	1	3	216	1	5	5	1	680	7	"sympathiek"	0	2
"1504"	12	"v"	96	3	1	1	2	216	0	6	6	1	645	1	"onvriendelijk"	0	4
"1505"	12	"v"	97	4	1	1	6	216	1	5	5	1	451	7	"aangenaam"	1	1
"1506"	12	"v"	98	4	1	1	3	216	0	6	6	1	551	7	"stug"	0	2
"1507"	12	"v"	99	4	1	2	1	216	1	5	5	1	609	1	"aangenaam"	1	1
"1508"	12	"v"	100	4	1	1	4	216	0	6	6	1	607	1	"onsympathiek"	1	1
"1509"	12	"v"	101	4	1	1	2	216	1	5	5	1	529	10	"mooi"	0	4
"1510"	12	"v"	102	4	1	1	3	216	0	6	6	1	480	1	"stug"	0	2
"1511"	12	"v"	103	4	1	1	3	216	0	6	6	1	576	1	"stug"	0	2
"1512"	12	"v"	104	4	1	2	1	216	1	5	5	1	641	6	"vriendelijk"	1	1
"1513"	12	"v"	105	4	1	2	5	216	0	6	6	1	568	1	"onsympathiek"	1	1
"1514"	12	"v"	106	4	1	2	5	216	1	5	5	1	804	7	"liefhebbend"	1	1
"1515"	12	"v"	107	4	1	1	6	216	0	6	6	1	615	1	"irritant"	1	1
"1516"	12	"v"	108	4	1	1	6	216	0	6	6	1	750	1	"irritant"	1	1
"1517"	12	"v"	109	4	1	1	6	216	1	5	5	1	836	1	"sympathiek"	1	1
"1518"	12	"v"	110	4	1	2	5	216	1	5	5	1	519	1	"aangenaam"	1	1
"1519"	12	"v"	111	4	1	2	7	216	0	6	6	1	560	1	"humeurig"	0	3
"1520"	12	"v"	112	4	1	1	2	216	1	5	5	1	576	1	"sympathiek"	0	4
"1521"	12	"v"	113	4	1	1	6	216	0	6	6	1	566	1	"onaardig"	1	1
"1522"	12	"v"	114	4	1	2	0	216	0	6	6	1	527	7	"onaardig"	0	3
"1523"	12	"v"	115	4	1	1	6	216	0	6	6	1	529	6	"humeurig"	1	1
"1524"	12	"v"	116	4	1	1	6	216	1	5	5	1	448	1	"sympathiek"	1	1
"1525"	12	"v"	117	4	1	1	3	216	1	5	5	1	567	1	"vriendelijk"	0	2
"1526"	12	"v"	118	4	1	2	5	216	1	5	5	1	502	7	"lief"	1	1
"1528"	12	"v"	120	4	1	2	1	216	0	6	6	1	543	1	"irritant"	1	1
"1529"	12	"v"	121	4	1	2	0	216	1	5	5	1	535	7	"sympathiek"	0	3
"1530"	12	"v"	122	4	1	2	1	216	0	6	6	1	590	1	"onvriendelijk"	1	1
"1531"	12	"v"	123	4	1	1	2	216	0	6	6	1	618	7	"humeurig"	0	4
"1532"	12	"v"	124	4	1	2	5	216	0	6	6	1	504	6	"irritant"	1	1
"1533"	12	"v"	125	4	1	2	1	216	1	5	5	1	508	7	"aangenaam"	1	1
"1534"	12	"v"	126	4	1	2	7	216	0	6	6	1	489	7	"irritant"	0	3
"1535"	12	"v"	127	4	1	1	4	216	0	6	6	1	570	1	"onaardig"	1	1
"1536"	12	"v"	128	4	1	1	4	216	0	6	6	1	514	1	"humeurig"	1	1
"1538"	13	"v"	2	1	1	2	5	216	1	5	5	1	693	8	"lief"	0	4
"1540"	13	"v"	4	1	1	2	7	216	0	6	6	1	751	1	"humeurig"	0	4
"1541"	13	"v"	5	1	1	1	1	216	1	5	5	1	578	7	"vriendelijk"	0	4
"1543"	13	"v"	7	1	1	1	6	216	1	5	5	1	544	7	"lief"	0	4
"1544"	13	"v"	8	1	1	2	2	216	1	5	5	1	571	1	"mooi"	0	3
"1545"	13	"v"	9	1	1	1	6	216	0	6	6	1	730	1	"humeurig"	0	4
"1546"	13	"v"	10	1	1	1	1	216	1	5	5	1	542	1	"vriendelijk"	0	4
"1547"	13	"v"	11	1	1	1	4	216	0	6	6	1	734	6	"stug"	0	4
"1548"	13	"v"	12	1	1	1	6	216	0	6	6	1	640	6	"onsympathiek"	0	4
"1549"	13	"v"	13	1	1	2	5	216	0	6	6	1	560	1	"onsympathiek"	0	4
"1550"	13	"v"	14	1	1	1	6	216	0	6	6	1	623	8	"stug"	0	4
"1551"	13	"v"	15	1	1	1	3	216	0	6	6	1	545	7	"onvriendelijk"	0	4
"1552"	13	"v"	16	1	1	2	5	216	1	5	5	1	554	1	"liefhebbend"	0	4
"1553"	13	"v"	17	1	1	1	4	216	1	5	5	1	494	1	"aangenaam"	0	4
"1554"	13	"v"	18	1	1	2	0	216	0	6	6	1	550	7	"humeurig"	0	4
"1555"	13	"v"	19	1	1	2	5	216	1	5	5	1	515	1	"lief"	0	4
"1556"	13	"v"	20	1	1	1	4	216	0	6	6	1	664	8	"onaardig"	0	4
"1557"	13	"v"	21	1	1	1	3	216	0	6	6	1	494	1	"onaardig"	0	4
"1558"	13	"v"	22	1	1	1	4	216	1	5	5	1	423	1	"lief"	0	4
"1559"	13	"v"	23	1	1	1	1	216	1	5	5	1	897	1	"sympathiek"	0	4
"1560"	13	"v"	24	1	1	2	5	216	1	5	5	1	461	1	"sympathiek"	0	4
"1561"	13	"v"	25	1	1	1	1	216	0	6	6	1	540	7	"stug"	0	4
"1562"	13	"v"	26	1	1	2	2	216	1	5	5	1	523	1	"liefhebbend"	0	3
"1563"	13	"v"	27	1	1	2	2	216	1	5	5	1	650	1	"aangenaam"	0	3
"1564"	13	"v"	28	1	1	2	2	216	0	6	6	1	580	1	"stug"	0	3
"1565"	13	"v"	29	1	1	2	0	216	1	5	5	1	434	7	"liefhebbend"	0	4
"1566"	13	"v"	30	1	1	2	5	216	0	6	6	1	681	1	"irritant"	0	4
"1567"	13	"v"	31	1	1	1	1	216	1	5	5	1	524	1	"liefhebbend"	0	4
"1568"	13	"v"	32	1	1	2	7	216	0	6	6	1	713	1	"onsympathiek"	0	4
"1569"	13	"v"	33	2	1	1	1	216	0	6	6	1	593	1	"onaardig"	0	4
"1570"	13	"v"	34	2	1	2	7	216	0	6	6	1	491	1	"onvriendelijk"	0	4
"1571"	13	"v"	35	2	1	2	0	216	1	5	5	1	511	7	"lief"	0	4
"1572"	13	"v"	36	2	1	2	2	216	0	6	6	1	481	1	"stug"	0	3
"1573"	13	"v"	37	2	1	1	3	216	0	6	6	1	579	1	"onvriendelijk"	0	4
"1574"	13	"v"	38	2	1	2	7	216	1	5	5	1	475	1	"sympathiek"	0	4
"1575"	13	"v"	39	2	1	1	6	216	0	6	6	1	540	9	"humeurig"	0	4
"1576"	13	"v"	40	2	1	2	5	216	1	5	5	1	464	1	"aangenaam"	0	4
"1577"	13	"v"	41	2	1	1	3	216	0	6	6	1	653	8	"irritant"	0	4
"1578"	13	"v"	42	2	1	2	7	216	1	5	5	1	439	8	"liefhebbend"	0	4
"1579"	13	"v"	43	2	1	2	7	216	1	5	5	1	415	1	"liefhebbend"	0	4
"1580"	13	"v"	44	2	1	2	7	216	0	6	6	1	383	1	"onaardig"	0	4
"1581"	13	"v"	45	2	1	1	6	216	1	5	5	1	422	1	"aangenaam"	0	4
"1582"	13	"v"	46	2	1	2	7	216	0	6	6	1	508	7	"irritant"	0	4
"1583"	13	"v"	47	2	1	1	3	216	1	5	5	1	378	1	"liefhebbend"	0	4
"1584"	13	"v"	48	2	1	1	4	216	1	5	5	1	545	1	"mooi"	0	4
"1585"	13	"v"	49	2	1	1	4	216	0	6	6	1	817	1	"humeurig"	0	4
"1586"	13	"v"	50	2	1	2	2	216	1	5	5	1	404	1	"lief"	0	3
"1588"	13	"v"	52	2	1	1	3	216	1	5	5	1	537	1	"mooi"	0	4
"1589"	13	"v"	53	2	1	2	2	216	1	5	5	1	395	1	"vriendelijk"	0	3
"1591"	13	"v"	55	2	1	1	3	216	1	5	5	1	379	7	"mooi"	0	4
"1592"	13	"v"	56	2	1	1	1	216	1	5	5	1	472	1	"aangenaam"	0	4
"1593"	13	"v"	57	2	1	1	3	216	1	5	5	1	426	7	"aangenaam"	0	4
"1594"	13	"v"	58	2	1	2	0	216	1	5	5	1	410	1	"lief"	0	4
"1595"	13	"v"	59	2	1	1	6	216	0	6	6	1	527	1	"onaardig"	0	4
"1596"	13	"v"	60	2	1	1	3	216	1	5	5	1	549	7	"lief"	0	4
"1597"	13	"v"	61	2	1	2	0	216	0	6	6	1	592	7	"stug"	0	4
"1598"	13	"v"	62	2	1	2	2	216	0	6	6	1	739	9	"onaardig"	0	3
"1599"	13	"v"	63	2	1	2	0	216	0	6	6	1	554	1	"irritant"	0	4
"1600"	13	"v"	64	2	1	2	0	216	1	5	5	1	558	1	"vriendelijk"	0	4
"1601"	13	"v"	65	3	1	2	5	216	0	6	6	1	845	1	"irritant"	0	4
"1602"	13	"v"	66	3	1	1	6	216	0	6	6	1	603	1	"irritant"	0	4
"1603"	13	"v"	67	3	1	1	4	216	0	6	6	1	553	7	"onaardig"	0	4
"1604"	13	"v"	68	3	1	2	0	216	0	6	6	1	412	10	"humeurig"	0	4
"1605"	13	"v"	69	3	1	2	5	216	0	6	6	1	412	1	"onaardig"	0	4
"1606"	13	"v"	70	3	1	2	7	216	1	5	5	1	451	6	"vriendelijk"	0	4
"1607"	13	"v"	71	3	1	1	4	216	1	5	5	1	416	1	"mooi"	0	4
"1608"	13	"v"	72	3	1	1	6	216	1	5	5	1	417	7	"lief"	0	4
"1609"	13	"v"	73	3	1	2	0	216	1	5	5	1	369	7	"vriendelijk"	0	4
"1610"	13	"v"	74	3	1	1	6	216	1	5	5	1	383	1	"lief"	0	4
"1611"	13	"v"	75	3	1	2	0	216	1	5	5	1	422	1	"liefhebbend"	0	4
"1612"	13	"v"	76	3	1	1	3	216	0	6	6	1	505	1	"onaardig"	0	4
"1613"	13	"v"	77	3	1	1	4	216	1	5	5	1	566	1	"liefhebbend"	0	4
"1614"	13	"v"	78	3	1	1	1	216	0	6	6	1	449	7	"stug"	0	4
"1615"	13	"v"	79	3	1	1	1	216	1	5	5	1	396	7	"lief"	0	4
"1616"	13	"v"	80	3	1	1	4	216	1	5	5	1	610	1	"vriendelijk"	0	4
"1617"	13	"v"	81	3	1	2	5	216	1	5	5	1	740	7	"mooi"	0	4
"1618"	13	"v"	82	3	1	1	1	216	0	6	6	1	445	7	"onaardig"	0	4
"1619"	13	"v"	83	3	1	2	2	216	1	5	5	1	349	8	"vriendelijk"	0	3
"1620"	13	"v"	84	3	1	1	1	216	0	6	6	1	489	6	"humeurig"	0	4
"1621"	13	"v"	85	3	1	2	7	216	1	5	5	1	314	1	"vriendelijk"	0	4
"1622"	13	"v"	86	3	1	2	2	216	0	6	6	1	392	1	"onaardig"	0	3
"1623"	13	"v"	87	3	1	2	2	216	1	5	5	1	504	1	"sympathiek"	0	3
"1624"	13	"v"	88	3	1	1	6	216	1	5	5	1	404	1	"aangenaam"	0	4
"1625"	13	"v"	89	3	1	2	7	216	0	6	6	1	553	1	"onaardig"	0	4
"1627"	13	"v"	91	3	1	1	4	216	1	5	5	1	419	9	"liefhebbend"	0	4
"1628"	13	"v"	92	3	1	1	4	216	0	6	6	1	528	1	"onvriendelijk"	0	4
"1629"	13	"v"	93	3	1	1	6	216	1	5	5	1	353	1	"vriendelijk"	0	4
"1630"	13	"v"	94	3	1	1	4	216	1	5	5	1	361	1	"aangenaam"	0	4
"1631"	13	"v"	95	3	1	2	2	216	0	6	6	1	510	1	"onsympathiek"	0	3
"1632"	13	"v"	96	3	1	1	3	216	1	5	5	1	300	7	"vriendelijk"	0	4
"1633"	13	"v"	97	4	1	2	2	216	0	6	6	1	552	1	"irritant"	0	3
"1634"	13	"v"	98	4	1	1	6	216	0	6	6	1	566	1	"onvriendelijk"	0	4
"1635"	13	"v"	99	4	1	1	6	216	0	6	6	1	499	6	"onaardig"	0	4
"1636"	13	"v"	100	4	1	1	4	216	0	6	6	1	401	7	"onvriendelijk"	0	4
"1637"	13	"v"	101	4	1	2	5	216	0	6	6	1	469	1	"onvriendelijk"	0	4
"1638"	13	"v"	102	4	1	2	0	216	0	6	6	1	610	7	"stug"	0	4
"1640"	13	"v"	104	4	1	1	4	216	0	6	6	1	505	1	"stug"	0	4
"1642"	13	"v"	106	4	1	1	3	216	0	6	6	1	606	7	"onsympathiek"	0	4
"1643"	13	"v"	107	4	1	2	0	216	0	6	6	1	452	7	"onsympathiek"	0	4
"1644"	13	"v"	108	4	1	1	1	216	0	6	6	1	547	7	"onvriendelijk"	0	4
"1645"	13	"v"	109	4	1	1	1	216	1	5	5	1	563	7	"aangenaam"	0	4
"1646"	13	"v"	110	4	1	2	7	216	0	6	6	1	517	1	"onvriendelijk"	0	4
"1647"	13	"v"	111	4	1	2	2	216	0	6	6	1	428	1	"stug"	0	3
"1648"	13	"v"	112	4	1	2	5	216	1	5	5	1	498	1	"mooi"	0	4
"1649"	13	"v"	113	4	1	2	5	216	0	6	6	1	483	7	"irritant"	0	4
"1650"	13	"v"	114	4	1	1	6	216	1	5	5	1	543	7	"aangenaam"	0	4
"1651"	13	"v"	115	4	1	1	3	216	0	6	6	1	480	1	"stug"	0	4
"1652"	13	"v"	116	4	1	2	2	216	0	6	6	1	473	6	"onaardig"	0	3
"1653"	13	"v"	117	4	1	2	7	216	0	6	6	1	474	1	"onsympathiek"	0	4
"1654"	13	"v"	118	4	1	1	1	216	1	5	5	1	561	1	"aangenaam"	0	4
"1656"	13	"v"	120	4	1	2	0	216	1	5	5	1	569	1	"liefhebbend"	0	4
"1657"	13	"v"	121	4	1	2	0	216	0	6	6	1	435	7	"onvriendelijk"	0	4
"1658"	13	"v"	122	4	1	2	7	216	1	5	5	1	448	1	"aangenaam"	0	4
"1659"	13	"v"	123	4	1	2	7	216	1	5	5	1	479	1	"sympathiek"	0	4
"1660"	13	"v"	124	4	1	1	3	216	1	5	5	1	419	1	"sympathiek"	0	4
"1661"	13	"v"	125	4	1	2	0	216	0	6	6	1	901	1	"irritant"	0	4
"1663"	13	"v"	127	4	1	1	4	216	0	6	6	1	535	1	"irritant"	0	4
"1664"	13	"v"	128	4	1	2	5	216	1	5	5	1	502	1	"mooi"	0	4
"1665"	14	"v"	1	1	2	2	0	216	1	6	6	1	644	1	"vriendelijk"	1	1
"1666"	14	"v"	2	1	2	1	6	216	0	5	5	1	455	1	"onvriendelijk"	1	1
"1667"	14	"v"	3	1	2	2	2	216	0	5	5	1	576	7	"onaardig"	0	4
"1668"	14	"v"	4	1	2	1	1	216	1	6	6	1	534	1	"sympathiek"	1	1
"1669"	14	"v"	5	1	2	1	1	216	1	6	6	1	510	1	"sympathiek"	1	1
"1670"	14	"v"	6	1	2	2	0	216	1	6	6	1	459	6	"vriendelijk"	1	1
"1671"	14	"v"	7	1	2	1	3	216	0	5	5	1	478	1	"humeurig"	1	1
"1672"	14	"v"	8	1	2	1	3	216	1	6	6	1	538	7	"liefhebbend"	1	1
"1673"	14	"v"	9	1	2	1	6	216	1	6	6	1	521	1	"mooi"	1	1
"1674"	14	"v"	10	1	2	2	5	216	1	6	6	1	546	7	"sympathiek"	1	1
"1675"	14	"v"	11	1	2	2	7	216	1	6	6	1	429	7	"vriendelijk"	1	1
"1676"	14	"v"	12	1	2	2	5	216	1	6	6	1	394	1	"mooi"	1	1
"1677"	14	"v"	13	1	2	2	0	216	0	5	5	1	478	1	"stug"	1	1
"1678"	14	"v"	14	1	2	1	4	216	1	6	6	1	475	1	"aangenaam"	1	1
"1679"	14	"v"	15	1	2	1	6	216	1	6	6	1	401	7	"sympathiek"	1	1
"1680"	14	"v"	16	1	2	2	7	216	0	5	5	1	649	6	"stug"	1	1
"1681"	14	"v"	17	1	2	2	5	216	0	5	5	1	494	1	"onsympathiek"	1	1
"1682"	14	"v"	18	1	2	1	1	216	1	6	6	1	482	1	"vriendelijk"	1	1
"1683"	14	"v"	19	1	2	1	6	216	0	5	5	1	483	8	"onsympathiek"	1	1
"1684"	14	"v"	20	1	2	2	5	216	1	6	6	1	521	6	"vriendelijk"	1	1
"1687"	14	"v"	23	1	2	2	0	216	1	6	6	1	490	7	"sympathiek"	1	1
"1688"	14	"v"	24	1	2	2	0	216	0	5	5	1	447	1	"humeurig"	1	1
"1689"	14	"v"	25	1	2	1	1	216	0	5	5	1	451	7	"onaardig"	1	1
"1690"	14	"v"	26	1	2	1	6	216	1	6	6	1	462	1	"liefhebbend"	1	1
"1691"	14	"v"	27	1	2	1	4	216	1	6	6	1	468	7	"sympathiek"	1	1
"1692"	14	"v"	28	1	2	2	5	216	0	5	5	1	432	1	"irritant"	1	1
"1693"	14	"v"	29	1	2	1	3	216	1	6	6	1	408	10	"mooi"	1	1
"1694"	14	"v"	30	1	2	2	0	216	1	6	6	1	368	1	"lief"	1	1
"1695"	14	"v"	31	1	2	1	1	216	0	5	5	1	475	7	"onsympathiek"	1	1
"1696"	14	"v"	32	1	2	1	3	216	0	5	5	1	521	1	"stug"	1	1
"1697"	14	"v"	33	2	2	1	3	216	1	6	6	1	484	1	"lief"	1	1
"1698"	14	"v"	34	2	2	2	2	216	0	5	5	1	478	1	"onvriendelijk"	0	4
"1699"	14	"v"	35	2	2	2	7	216	1	6	6	1	494	1	"aangenaam"	1	1
"1701"	14	"v"	37	2	2	1	3	216	0	5	5	1	462	1	"irritant"	1	1
"1702"	14	"v"	38	2	2	1	4	216	0	5	5	1	526	7	"onsympathiek"	1	1
"1703"	14	"v"	39	2	2	1	3	216	0	5	5	1	495	1	"stug"	1	1
"1704"	14	"v"	40	2	2	2	0	216	1	6	6	1	432	1	"mooi"	1	1
"1705"	14	"v"	41	2	2	2	7	216	0	5	5	1	408	1	"stug"	1	1
"1706"	14	"v"	42	2	2	1	4	216	1	6	6	1	505	7	"aangenaam"	1	1
"1709"	14	"v"	45	2	2	1	6	216	0	5	5	1	510	6	"onsympathiek"	1	1
"1710"	14	"v"	46	2	2	2	7	216	0	5	5	1	461	1	"onvriendelijk"	1	1
"1712"	14	"v"	48	2	2	2	2	216	0	5	5	1	689	1	"humeurig"	0	4
"1713"	14	"v"	49	2	2	2	5	216	0	5	5	1	413	1	"humeurig"	1	1
"1714"	14	"v"	50	2	2	1	1	216	1	6	6	1	734	7	"sympathiek"	1	1
"1715"	14	"v"	51	2	2	2	7	216	0	5	5	1	442	1	"onvriendelijk"	1	1
"1716"	14	"v"	52	2	2	2	2	216	0	5	5	1	460	1	"onvriendelijk"	0	4
"1717"	14	"v"	53	2	2	2	0	216	0	5	5	1	510	1	"irritant"	1	1
"1718"	14	"v"	54	2	2	1	4	216	0	5	5	1	583	1	"onsympathiek"	1	1
"1719"	14	"v"	55	2	2	2	0	216	1	6	6	1	453	1	"vriendelijk"	1	1
"1720"	14	"v"	56	2	2	1	4	216	1	6	6	1	619	1	"lief"	1	1
"1721"	14	"v"	57	2	2	1	4	216	1	6	6	1	489	7	"liefhebbend"	1	1
"1722"	14	"v"	58	2	2	2	2	216	0	5	5	1	637	1	"humeurig"	0	4
"1723"	14	"v"	59	2	2	2	7	216	1	6	6	1	577	1	"mooi"	1	1
"1724"	14	"v"	60	2	2	2	7	216	1	6	6	1	452	1	"mooi"	1	1
"1725"	14	"v"	61	2	2	2	0	216	0	5	5	1	550	1	"stug"	1	1
"1726"	14	"v"	62	2	2	1	6	216	0	5	5	1	490	1	"stug"	1	1
"1727"	14	"v"	63	2	2	1	1	216	0	5	5	1	669	1	"humeurig"	1	1
"1728"	14	"v"	64	2	2	1	1	216	1	6	6	1	461	1	"mooi"	1	1
"1729"	14	"v"	65	3	2	2	0	216	1	6	6	1	416	1	"mooi"	1	1
"1730"	14	"v"	66	3	2	1	3	216	0	5	5	1	530	1	"onvriendelijk"	1	1
"1731"	14	"v"	67	3	2	1	6	216	1	6	6	1	458	1	"liefhebbend"	1	1
"1732"	14	"v"	68	3	2	1	4	216	1	6	6	1	397	6	"aangenaam"	1	1
"1733"	14	"v"	69	3	2	2	2	216	0	5	5	1	512	1	"onaardig"	0	4
"1734"	14	"v"	70	3	2	2	7	216	0	5	5	1	473	1	"onvriendelijk"	1	1
"1735"	14	"v"	71	3	2	2	0	216	0	5	5	1	408	7	"stug"	1	1
"1736"	14	"v"	72	3	2	1	6	216	1	6	6	1	539	7	"sympathiek"	1	1
"1737"	14	"v"	73	3	2	2	7	216	0	5	5	1	438	1	"irritant"	1	1
"1738"	14	"v"	74	3	2	2	2	216	1	6	6	1	413	7	"lief"	0	4
"1739"	14	"v"	75	3	2	1	4	216	0	5	5	1	508	7	"humeurig"	1	1
"1740"	14	"v"	76	3	2	2	5	216	1	6	6	1	434	1	"vriendelijk"	1	1
"1741"	14	"v"	77	3	2	1	6	216	0	5	5	1	385	7	"onaardig"	1	1
"1743"	14	"v"	79	3	2	2	7	216	1	6	6	1	428	6	"lief"	1	1
"1744"	14	"v"	80	3	2	1	3	216	1	6	6	1	506	1	"aangenaam"	1	1
"1745"	14	"v"	81	3	2	2	7	216	1	6	6	1	490	7	"vriendelijk"	1	1
"1746"	14	"v"	82	3	2	2	7	216	1	6	6	1	416	1	"aangenaam"	1	1
"1747"	14	"v"	83	3	2	2	5	216	1	6	6	1	525	1	"sympathiek"	1	1
"1748"	14	"v"	84	3	2	1	1	216	1	6	6	1	396	7	"lief"	1	1
"1749"	14	"v"	85	3	2	1	1	216	0	5	5	1	451	1	"onaardig"	1	1
"1750"	14	"v"	86	3	2	1	6	216	1	6	6	1	410	1	"mooi"	1	1
"1751"	14	"v"	87	3	2	2	2	216	1	6	6	1	397	1	"liefhebbend"	0	4
"1752"	14	"v"	88	3	2	1	1	216	1	6	6	1	450	7	"aangenaam"	1	1
"1753"	14	"v"	89	3	2	2	0	216	1	6	6	1	363	1	"lief"	1	1
"1755"	14	"v"	91	3	2	2	5	216	1	6	6	1	355	7	"mooi"	1	1
"1756"	14	"v"	92	3	2	1	6	216	0	5	5	1	444	1	"onsympathiek"	1	1
"1757"	14	"v"	93	3	2	2	5	216	1	6	6	1	478	1	"liefhebbend"	1	1
"1758"	14	"v"	94	3	2	2	7	216	1	6	6	1	374	1	"mooi"	1	1
"1759"	14	"v"	95	3	2	2	2	216	0	5	5	1	414	1	"stug"	0	4
"1760"	14	"v"	96	3	2	2	0	216	0	5	5	1	452	1	"irritant"	1	1
"1761"	14	"v"	97	4	2	1	3	216	1	6	6	1	566	1	"sympathiek"	1	1
"1762"	14	"v"	98	4	2	2	5	216	0	5	5	1	444	7	"onaardig"	1	1
"1763"	14	"v"	99	4	2	1	6	216	0	5	5	1	484	1	"irritant"	1	1
"1764"	14	"v"	100	4	2	2	0	216	0	5	5	1	362	1	"humeurig"	1	1
"1765"	14	"v"	101	4	2	2	2	216	1	6	6	1	509	1	"sympathiek"	0	4
"1766"	14	"v"	102	4	2	2	2	216	1	6	6	1	450	6	"vriendelijk"	0	4
"1767"	14	"v"	103	4	2	2	5	216	0	5	5	1	343	1	"onvriendelijk"	1	1
"1768"	14	"v"	104	4	2	1	4	216	1	6	6	1	384	7	"vriendelijk"	1	1
"1769"	14	"v"	105	4	2	2	5	216	1	6	6	1	590	1	"sympathiek"	1	1
"1770"	14	"v"	106	4	2	2	7	216	0	5	5	1	398	7	"onvriendelijk"	1	1
"1771"	14	"v"	107	4	2	1	4	216	1	6	6	1	427	1	"sympathiek"	1	1
"1772"	14	"v"	108	4	2	1	3	216	1	6	6	1	440	1	"mooi"	1	1
"1773"	14	"v"	109	4	2	1	1	216	1	6	6	1	514	1	"aangenaam"	1	1
"1774"	14	"v"	110	4	2	1	3	216	1	6	6	1	434	7	"mooi"	1	1
"1776"	14	"v"	112	4	2	1	4	216	0	5	5	1	491	1	"stug"	1	1
"1777"	14	"v"	113	4	2	1	4	216	0	5	5	1	402	1	"onaardig"	1	1
"1779"	14	"v"	115	4	2	1	1	216	0	5	5	1	443	7	"onaardig"	1	1
"1780"	14	"v"	116	4	2	2	2	216	1	6	6	1	406	1	"mooi"	0	4
"1781"	14	"v"	117	4	2	1	6	216	1	6	6	1	469	10	"aangenaam"	1	1
"1782"	14	"v"	118	4	2	1	3	216	0	5	5	1	612	1	"humeurig"	1	1
"1783"	14	"v"	119	4	2	1	6	216	0	5	5	1	406	9	"humeurig"	1	1
"1784"	14	"v"	120	4	2	2	2	216	1	6	6	1	466	1	"sympathiek"	0	4
"1785"	14	"v"	121	4	2	1	3	216	0	5	5	1	448	1	"irritant"	1	1
"1786"	14	"v"	122	4	2	2	2	216	0	5	5	1	531	1	"irritant"	0	4
"1787"	14	"v"	123	4	2	1	3	216	1	6	6	1	471	10	"lief"	1	1
"1788"	14	"v"	124	4	2	2	5	216	0	5	5	1	440	1	"stug"	1	1
"1789"	14	"v"	125	4	2	2	2	216	1	6	6	1	442	1	"mooi"	0	4
"1790"	14	"v"	126	4	2	2	7	216	0	5	5	1	381	1	"humeurig"	1	1
"1791"	14	"v"	127	4	2	2	2	216	1	6	6	1	449	1	"vriendelijk"	0	4
"1792"	14	"v"	128	4	2	2	5	216	0	5	5	1	467	1	"onaardig"	1	1
"1794"	15	"m"	2	1	2	2	1	216	0	5	5	1	576	1	"onvriendelijk"	1	1
"1795"	15	"m"	3	1	2	2	7	216	1	6	6	1	573	7	"aangenaam"	1	1
"1796"	15	"m"	4	1	2	2	7	216	1	6	6	1	393	7	"mooi"	1	1
"1797"	15	"m"	5	1	2	1	5	216	1	6	6	1	480	1	"vriendelijk"	1	1
"1798"	15	"m"	6	1	2	1	5	216	0	5	5	1	531	1	"onaardig"	1	1
"1799"	15	"m"	7	1	2	2	7	216	1	6	6	1	511	1	"sympathiek"	1	1
"1800"	15	"m"	8	1	2	1	3	216	0	5	5	1	611	1	"stug"	1	1
"1801"	15	"m"	9	1	2	1	4	216	0	5	5	1	620	1	"onvriendelijk"	1	1
"1802"	15	"m"	10	1	2	1	2	216	1	6	6	1	546	1	"sympathiek"	0	4
"1803"	15	"m"	11	1	2	2	0	216	1	6	6	1	512	7	"aangenaam"	1	1
"1804"	15	"m"	12	1	2	2	6	216	0	5	5	1	541	8	"onsympathiek"	1	1
"1805"	15	"m"	13	1	2	1	4	216	0	5	5	1	549	6	"onvriendelijk"	1	1
"1806"	15	"m"	14	1	2	1	2	216	1	6	6	1	542	8	"mooi"	0	4
"1807"	15	"m"	15	1	2	2	0	216	0	5	5	1	588	10	"onsympathiek"	1	1
"1808"	15	"m"	16	1	2	2	7	216	1	6	6	1	490	7	"aangenaam"	1	1
"1809"	15	"m"	17	1	2	1	5	216	0	5	5	1	590	7	"onaardig"	1	1
"1810"	15	"m"	18	1	2	2	0	216	1	6	6	1	622	7	"liefhebbend"	1	1
"1811"	15	"m"	19	1	2	1	2	216	1	6	6	1	539	1	"sympathiek"	0	4
"1812"	15	"m"	20	1	2	2	1	216	0	5	5	1	543	1	"onaardig"	1	1
"1813"	15	"m"	21	1	2	2	1	216	0	5	5	1	526	1	"onvriendelijk"	1	1
"1814"	15	"m"	22	1	2	1	5	216	0	5	5	1	472	1	"onsympathiek"	1	1
"1815"	15	"m"	23	1	2	1	2	216	0	5	5	1	508	1	"onaardig"	0	4
"1816"	15	"m"	24	1	2	2	7	216	1	6	6	1	533	1	"liefhebbend"	1	1
"1817"	15	"m"	25	1	2	1	3	216	1	6	6	1	453	1	"vriendelijk"	1	1
"1818"	15	"m"	26	1	2	2	0	216	1	6	6	1	403	1	"mooi"	1	1
"1819"	15	"m"	27	1	2	1	3	216	1	6	6	1	440	1	"lief"	1	1
"1820"	15	"m"	28	1	2	2	1	216	0	5	5	1	441	7	"onaardig"	1	1
"1822"	15	"m"	30	1	2	1	3	216	1	6	6	1	571	1	"sympathiek"	1	1
"1823"	15	"m"	31	1	2	2	6	216	1	6	6	1	444	7	"lief"	1	1
"1824"	15	"m"	32	1	2	1	4	216	0	5	5	1	473	9	"onsympathiek"	1	1
"1826"	15	"m"	34	2	2	1	5	216	0	5	5	1	498	10	"onaardig"	1	1
"1828"	15	"m"	36	2	2	2	7	216	0	5	5	1	517	7	"onsympathiek"	1	1
"1831"	15	"m"	39	2	2	1	5	216	1	6	6	1	477	8	"vriendelijk"	1	1
"1832"	15	"m"	40	2	2	1	5	216	1	6	6	1	508	1	"liefhebbend"	1	1
"1833"	15	"m"	41	2	2	2	6	216	1	6	6	1	508	1	"aangenaam"	1	1
"1834"	15	"m"	42	2	2	2	7	216	0	5	5	1	540	7	"irritant"	1	1
"1835"	15	"m"	43	2	2	1	4	216	0	5	5	1	665	1	"stug"	1	1
"1836"	15	"m"	44	2	2	1	5	216	1	6	6	1	675	7	"aangenaam"	1	1
"1837"	15	"m"	45	2	2	2	7	216	1	6	6	1	456	7	"mooi"	1	1
"1838"	15	"m"	46	2	2	1	3	216	1	6	6	1	514	1	"aangenaam"	1	1
"1839"	15	"m"	47	2	2	1	3	216	1	6	6	1	513	7	"liefhebbend"	1	1
"1840"	15	"m"	48	2	2	1	2	216	1	6	6	1	511	7	"liefhebbend"	0	4
"1841"	15	"m"	49	2	2	2	7	216	0	5	5	1	579	1	"onsympathiek"	1	1
"1842"	15	"m"	50	2	2	2	1	216	0	5	5	1	594	7	"onsympathiek"	1	1
"1843"	15	"m"	51	2	2	1	3	216	1	6	6	1	481	7	"mooi"	1	1
"1844"	15	"m"	52	2	2	2	0	216	1	6	6	1	502	7	"aangenaam"	1	1
"1845"	15	"m"	53	2	2	1	4	216	1	6	6	1	459	6	"liefhebbend"	1	1
"1846"	15	"m"	54	2	2	1	2	216	1	6	6	1	431	6	"mooi"	0	4
"1847"	15	"m"	55	2	2	1	4	216	1	6	6	1	427	7	"liefhebbend"	1	1
"1848"	15	"m"	56	2	2	1	2	216	0	5	5	1	492	6	"onvriendelijk"	0	4
"1849"	15	"m"	57	2	2	2	0	216	0	5	5	1	520	7	"stug"	1	1
"1850"	15	"m"	58	2	2	1	4	216	1	6	6	1	400	1	"mooi"	1	1
"1851"	15	"m"	59	2	2	1	3	216	0	5	5	1	368	1	"onvriendelijk"	1	1
"1852"	15	"m"	60	2	2	2	1	216	1	6	6	1	629	1	"sympathiek"	1	1
"1853"	15	"m"	61	2	2	2	0	216	0	5	5	1	666	7	"irritant"	1	1
"1854"	15	"m"	62	2	2	2	0	216	0	5	5	1	706	1	"humeurig"	1	1
"1855"	15	"m"	63	2	2	2	6	216	1	6	6	1	476	7	"aangenaam"	1	1
"1856"	15	"m"	64	2	2	1	5	216	1	6	6	1	479	7	"lief"	1	1
"1857"	15	"m"	65	3	2	2	7	216	0	5	5	1	387	7	"stug"	1	1
"1858"	15	"m"	66	3	2	1	4	216	0	5	5	1	458	1	"onsympathiek"	1	1
"1860"	15	"m"	68	3	2	2	1	216	0	5	5	1	498	6	"irritant"	1	1
"1861"	15	"m"	69	3	2	1	4	216	1	6	6	1	540	1	"aangenaam"	1	1
"1862"	15	"m"	70	3	2	1	5	216	1	6	6	1	603	7	"aangenaam"	1	1
"1863"	15	"m"	71	3	2	1	4	216	0	5	5	1	523	1	"humeurig"	1	1
"1864"	15	"m"	72	3	2	2	6	216	0	5	5	1	520	1	"onaardig"	1	1
"1865"	15	"m"	73	3	2	2	6	216	1	6	6	1	546	1	"vriendelijk"	1	1
"1866"	15	"m"	74	3	2	1	5	216	0	5	5	1	523	7	"humeurig"	1	1
"1867"	15	"m"	75	3	2	1	3	216	0	5	5	1	473	8	"onaardig"	1	1
"1868"	15	"m"	76	3	2	2	0	216	0	5	5	1	545	6	"stug"	1	1
"1869"	15	"m"	77	3	2	2	7	216	0	5	5	1	480	1	"onaardig"	1	1
"1870"	15	"m"	78	3	2	1	4	216	0	5	5	1	497	7	"irritant"	1	1
"1871"	15	"m"	79	3	2	1	4	216	1	6	6	1	488	7	"lief"	1	1
"1872"	15	"m"	80	3	2	2	6	216	1	6	6	1	597	6	"mooi"	1	1
"1873"	15	"m"	81	3	2	1	3	216	1	6	6	1	593	1	"liefhebbend"	1	1
